time, bias_gyr_x, bias_gyr_y, bias_gyr_z, bias_acc_x, bias_acc_y, bias_acc_z
-1, 0, 0, 0, 0, 0, 0
1159.055937983000149, 0, 0, 0, 0, 0, 0
1159.0892651460001161, -0.00339555, -0.0057629, -0.00184256, -1.77275e-06, -3.79937e-06, 2.01746e-06
1159.1225922780001838, -0.00220361, 0.00319997, -0.00309009, -0.00342734, 0.000122607, -3.85357e-05
1159.1559194680000928, 0.00113381, 0.00474053, -0.00186384, -0.0039306, 0.000503168, 0.0003782
1159.1893966780000937, 0.00255432, 0.00603515, -0.000898131, 0.00445142, -0.000112919, 0.000902171
1159.2227238390000821, 0.000512496, 0.00480602, -0.000476854, 0.0350036, 0.000557349, 0.00268095
1159.2560509720001392, -0.0019837, 0.00239591, -0.000676678, 0.0851195, 0.00151012, 0.0059674
1159.2893781330001275, -0.00364075, -0.000488886, -0.000602052, 0.135435, 0.00228657, 0.00950438
1159.3227052940001158, -0.00291798, -0.00242166, -0.00061184, 0.140366, 0.00242523, 0.00988672
1159.3560324220002258, -0.00293181, -0.00249413, -0.00102431, 0.108133, 0.00246016, 0.00762019
1159.3893596450002406, -0.00268725, -0.00303044, -0.00116171, 0.091893, 0.00253171, 0.00652043
1159.4226867770000808, -0.00256135, -0.0036401, -0.0013005, 0.0811191, 0.00256415, 0.00579759
1159.4560139340001115, -0.00232086, -0.00363135, -0.00130959, 0.0653642, 0.00260028, 0.00469524
1159.4893411330001527, -0.00241877, -0.00367882, -0.00134195, 0.0580423, 0.00259795, 0.00414247
1159.5228183380002065, -0.00248435, -0.00389577, -0.00138349, 0.0599725, 0.00259108, 0.00434277
1159.5561454710000362, -0.0024327, -0.00406698, -0.00135873, 0.0601326, 0.00259808, 0.00435022
1159.5894726270000774, -0.00253406, -0.00389685, -0.00136008, 0.0531658, 0.0025865, 0.00351401
1159.6227997930002402, -0.00244351, -0.00376913, -0.00138293, 0.0502084, 0.00258398, 0.00310147
1159.6561269830001493, -0.0025229, -0.00373847, -0.00141598, 0.0516055, 0.00258661, 0.0033292
1159.6894541440001376, -0.00246672, -0.00384634, -0.00146464, 0.0572782, 0.00257168, 0.00442694
1159.7227812720002476, -0.00238186, -0.00381396, -0.00147095, 0.0556815, 0.00258048, 0.00407268
1159.7561084370001936, -0.00217168, -0.00355615, -0.00152317, 0.0515077, 0.0026283, 0.003009
1159.7894356270001026, -0.00184474, -0.00338908, -0.00150988, 0.0495197, 0.00265929, 0.00245135
1159.8227627600001597, -0.00160344, -0.00322578, -0.00151853, 0.0502115, 0.0026591, 0.00267992
1159.8562399980000919, -0.00133883, -0.00313773, -0.00150029, 0.0516284, 0.00264749, 0.00316804
1159.8895671590000802, -0.00112816, -0.00301877, -0.00154881, 0.0525804, 0.00263648, 0.00347084
1159.9228943200000685, -0.00095406, -0.00291252, -0.00155053, 0.0526122, 0.0026383, 0.0034383
1159.9562214480001785, -0.000809256, -0.00291226, -0.00154608, 0.0551887, 0.00263456, 0.00416744
1159.9895485810002356, -0.000681657, -0.0029145, -0.00152531, 0.0561046, 0.00265338, 0.00434822
1160.0228711280001335, -0.000567934, -0.00289717, -0.00154117, 0.0567737, 0.00270882, 0.00425157
1160.0561869900002421, -0.000553288, -0.00289301, -0.0015711, 0.0572104, 0.00275821, 0.00421381
1160.089503385000171, -0.000582805, -0.00280153, -0.00157847, 0.0554429, 0.0029042, 0.00381645
1160.122819685000195, -0.000608182, -0.00278324, -0.00158261, 0.0557577, 0.0030059, 0.00366906
1160.1561360520001926, -0.000604507, -0.00280015, -0.00160278, 0.056475, 0.00310802, 0.00355677
1160.1896023850001711, -0.000634469, -0.00275883, -0.00162528, 0.0557438, 0.00333413, 0.00311279
1160.2229187180000736, -0.00074357, -0.00271782, -0.00165184, 0.0557937, 0.00367129, 0.00231269
1160.2562350180000976, -0.000877897, -0.00273188, -0.00163757, 0.0563471, 0.0040422, 0.00176484
1160.2895513850000953, -0.000990177, -0.0027987, -0.00162032, 0.0572814, 0.00436908, 0.00148764
1160.3228676850001193, -0.00112292, -0.00283353, -0.00157027, 0.0572577, 0.00476633, 0.00155045
1160.3561840230001962, -0.00123881, -0.00283762, -0.00151692, 0.056415, 0.00513513, 0.00178206
1160.3895003560000987, -0.00133014, -0.00286312, -0.00146301, 0.0557934, 0.00538882, 0.00205315
1160.4228167560002021, -0.00139088, -0.00286053, -0.00139775, 0.0547944, 0.00562354, 0.0022303
1160.4561330510000516, -0.00141553, -0.00285706, -0.00131638, 0.0539433, 0.00575064, 0.00262242
1160.4894493560002502, -0.00138084, -0.00286235, -0.00125529, 0.0543071, 0.00562188, 0.00317604
1160.5227656850001949, -0.00130854, -0.00291689, -0.00124128, 0.0550665, 0.00534883, 0.00352398
1160.5562320230001205, -0.00116537, -0.00280383, -0.00134584, 0.0569957, 0.00517353, 0.00406879
1160.589548385000171, -0.00106298, -0.00270843, -0.00133538, 0.0587002, 0.00475826, 0.00435616
1160.6228647180000735, -0.001093, -0.00264576, -0.00126559, 0.0605339, 0.00454233, 0.00497864
1160.6561816230000659, -0.00106584, -0.00269852, -0.00126296, 0.0627558, 0.00422659, 0.0059767
1160.6894973560001745, -0.00109507, -0.00272081, -0.00131839, 0.0645245, 0.00385981, 0.00725845
1160.7228136850001192, -0.00113553, -0.00264878, -0.00133281, 0.0617096, 0.00483473, 0.00441359
1160.756130018000249, -0.00115655, -0.00265033, -0.00135866, 0.0603174, 0.00560481, 0.00206702
1160.7894463560000986, -0.00116273, -0.00261738, -0.00136661, 0.0590132, 0.00680118, -0.00155809
1160.8227627180001491, -0.00114932, -0.00265758, -0.00133774, 0.062397, 0.00300247, 0.00984135
1160.8560790610001732, -0.00114114, -0.00270118, -0.00132558, 0.0655706, -0.000482383, 0.0222334
1160.8895458040001358, -0.00116353, -0.00267027, -0.00144136, 0.0668362, -0.0034493, 0.0344285
1160.922861690000218, -0.00118551, -0.00261411, -0.00151667, 0.0662957, -0.00433998, 0.0369769
1160.9561780230001204, -0.00120731, -0.00250039, -0.00150123, 0.0633163, -0.00357054, 0.0247812
1160.989494385000171, -0.00122697, -0.0024626, -0.00146343, 0.0617185, -0.00299641, 0.0154571
1161.0228106890001527, -0.00123232, -0.00246699, -0.00139618, 0.0608683, -0.00125722, 0.00356371
1161.0561270370001239, -0.00124552, -0.0025134, -0.00139936, 0.0619692, -0.000317726, 0.00783448
1161.0894433850000951, -0.00127307, -0.00253403, -0.00144879, 0.0620854, 4.70393e-05, 0.0154118
1161.1227597180002249, -0.00127815, -0.00247003, -0.0014442, 0.0602198, -0.000432345, 0.011294
1161.156076018000249, -0.00127479, -0.0024788, -0.00145009, 0.058852, 0.000329333, 0.00821059
1161.1893923850002466, -0.00127676, -0.00248002, -0.0014409, 0.057791, 0.0017033, 0.00433287
1161.222708718000149, -0.00128057, -0.00247059, -0.00145025, 0.0572161, 0.000442721, 0.00744592
1161.2561750510001275, -0.00127779, -0.00244616, -0.00151553, 0.0558273, -0.00246069, 0.0190169
1161.2894913560000987, -0.00129082, -0.00256247, -0.00149417, 0.0586232, -0.000701591, 0.0144134
1161.3228077180001492, -0.00128264, -0.00259612, -0.00144836, 0.0604029, -0.000432094, 0.00543768
1161.3561240230001204, -0.00127694, -0.00268645, -0.00144736, 0.0587818, 0.012075, 0.00630392
1161.3894403850001709, -0.00127191, -0.00268457, -0.00143665, 0.0559234, 0.0238311, 0.00998532
1161.4227567180000733, -0.00127483, -0.0027049, -0.0014745, 0.0546162, 0.0274842, 0.0200965
1161.4560730510002031, -0.00128311, -0.00277161, -0.00155087, 0.0506102, 0.0394626, 0.0446668
1161.489389385000095, -0.00128519, -0.0027866, -0.00155999, 0.0484979, 0.0457709, 0.0545098
1161.5227057180002248, -0.00128799, -0.00277388, -0.00162048, 0.0458054, 0.0490188, 0.0739033
1161.5560220510001272, -0.00128854, -0.00283395, -0.00174152, 0.0462647, 0.0464237, 0.0837525
1161.5894883700002538, -0.001299, -0.00288527, -0.00177349, 0.0428785, 0.0548285, 0.1068
1161.622804718000225, -0.00129944, -0.00291367, -0.00183079, 0.0445238, 0.0535179, 0.100938
1161.6561210510001274, -0.00128924, -0.00286449, -0.00174735, 0.0475695, 0.0506163, 0.0722757
1161.6894373850002466, -0.00129466, -0.00284863, -0.00178915, 0.0428593, 0.0483075, 0.112382
1161.7227536850000433, -0.00130205, -0.00281322, -0.00177699, 0.0391762, 0.0452147, 0.140682
1161.7560700510000515, -0.00130333, -0.00277183, -0.001685, 0.0377706, 0.0423616, 0.145823
1161.7893863510000756, -0.00131118, -0.00267509, -0.00169154, 0.0331972, 0.0304084, 0.187418
1161.8227027180000732, -0.00131141, -0.00268288, -0.00161098, 0.0348289, 0.0344739, 0.166798
1161.8560190180000973, -0.00130567, -0.00269791, -0.00153115, 0.0455806, 0.0476936, 0.0615412
1161.8893353560001742, -0.00130349, -0.00265113, -0.00146543, 0.0521912, 0.0507179, -0.0059485
1161.9228017180000734, -0.00129933, -0.00268704, -0.00139729, 0.0556921, 0.0597611, -0.0459428
1161.9561180230000446, -0.00130585, -0.00271421, -0.00136908, 0.0569732, 0.0650152, -0.0614706
1161.9894343560001744, -0.00131363, -0.00277604, -0.001326, 0.0548352, 0.0693112, -0.0441541
1162.0227506850001191, -0.00132209, -0.00275624, -0.00114506, 0.0553364, 0.0680331, -0.0622034
1162.0560670510001273, -0.00132949, -0.00270633, -0.00102607, 0.0551103, 0.0616865, -0.0676974
1162.0893833560000985, -0.00132784, -0.00266026, -0.000946712, 0.0536444, 0.0540541, -0.0574746
1162.1226996850000432, -0.00133133, -0.0027357, -0.000845839, 0.04997, 0.0578783, -0.0266486
1162.1560160510000514, -0.00134133, -0.00266229, -0.000620901, 0.0476059, 0.04626, -0.0138172
1162.1893323850001707, -0.00134638, -0.00275314, -0.000611173, 0.0463019, 0.0522495, -0.00186793
1162.2226487180000731, -0.00134322, -0.0026772, -0.000558581, 0.0449445, 0.0431066, 0.0104281
1162.2559650510002029, -0.00134374, -0.00266087, -0.00050988, 0.0454434, 0.043222, 0.0050832
1162.2894313850001708, -0.00133836, -0.00265781, -0.000545344, 0.0478058, 0.0485492, -0.0164706
1162.3227477180000733, -0.00133987, -0.00271972, -0.000573734, 0.0489875, 0.0556753, -0.0272959
1162.3560640180000973, -0.00134223, -0.00273837, -0.000478002, 0.0494395, 0.0581294, -0.0294268
1162.3893803560001743, -0.00133972, -0.00271176, -0.000416065, 0.0492986, 0.056482, -0.0267187
1162.4226967180002248, -0.00133469, -0.00265989, -0.000387686, 0.0490246, 0.0545126, -0.0231797
1162.4560130510001272, -0.00132723, -0.00259253, -0.000312131, 0.0489699, 0.0532608, -0.0187246
1162.4893293890002042, -0.00130982, -0.00244543, -0.000189798, 0.0475302, 0.0480595, 0.00038729
1162.5226456850000432, -0.00127143, -0.00203205, -8.62202e-05, 0.046344, 0.0535017, 0.0154577
1162.5559619890002523, -0.00125229, -0.00186572, -1.43985e-05, 0.0447876, 0.054371, 0.03284
1162.5892783560002499, -0.0012494, -0.00183803, -7.55458e-06, 0.0446498, 0.0556433, 0.0344735
1162.6227447230000962, -0.00124975, -0.00184171, 7.65028e-06, 0.0426268, 0.0510596, 0.0511884
1162.6560609940001996, -0.0012333, -0.00173283, 5.97583e-05, 0.0402827, 0.0567355, 0.073915
1162.6893773510000756, -0.00123141, -0.00168534, 6.71488e-05, 0.040797, 0.0614767, 0.0709393
1162.7226937180000732, -0.00123235, -0.00158591, 0.00014495, 0.0411266, 0.070239, 0.0780209
1162.756010051000203, -0.00122743, -0.00155609, 0.000160934, 0.0409137, 0.0741867, 0.0815946
1162.7893263840001055, -0.00121345, -0.00141997, 0.000176987, 0.0401924, 0.0973225, 0.0886439
1162.8226426840001295, -0.00121029, -0.00149689, 0.000114098, 0.0393562, 0.0904568, 0.0849458
1162.8559590230001959, -0.00120721, -0.00140973, 7.55405e-05, 0.040635, 0.102597, 0.0702516
1162.8892753420002464, -0.00121058, -0.00133488, 2.79564e-05, 0.0421708, 0.110242, 0.0527367
1162.9225916840000536, -0.00120069, -0.00138033, -0.000106745, 0.0414537, 0.112689, 0.0305834
1162.95590802300012, -0.0011898, -0.00139853, -0.00022268, 0.0407241, 0.115259, 0.0136859
1162.9893743940001514, -0.00118876, -0.0014288, -0.000284074, 0.0409966, 0.104615, -0.00132855
1163.022690718000149, -0.00119253, -0.00146479, -0.000322294, 0.0417416, 0.0853126, -0.0143988
1163.0560070560002259, -0.00119948, -0.00152636, -0.000353383, 0.0422929, 0.0591934, -0.0247513
1163.0893233840001812, -0.00120168, -0.0014761, -0.00044822, 0.0431198, 0.0615713, -0.0511549
1163.1226396840002053, -0.00120935, -0.00142848, -0.000474621, 0.043379, 0.0718204, -0.0609784
1163.1559560180000972, -0.00120275, -0.00145855, -0.00053863, 0.0432923, 0.0607759, -0.0754036
1163.1892723840001054, -0.00119645, -0.00146871, -0.000580486, 0.0421142, 0.0770766, -0.0782369
1163.2225886840001294, -0.00119404, -0.00152265, -0.000617301, 0.0409516, 0.0803179, -0.0792372
1163.2559050510001271, -0.00119662, -0.00149304, -0.000658102, 0.0398422, 0.110314, -0.0827837
1163.2892213840002569, -0.00119942, -0.00146665, -0.000684104, 0.0394704, 0.124549, -0.0849407
1163.3226876890000767, -0.00120638, -0.00142568, -0.000705963, 0.0396049, 0.133052, -0.0889348
1163.3560040180002488, -0.00121919, -0.00133932, -0.00074202, 0.0401389, 0.148, -0.0978945
1163.3893203560000984, -0.00121128, -0.00131751, -0.000775283, 0.0409804, 0.132839, -0.105926
1163.4226367180001489, -0.00122195, -0.00131375, -0.000785135, 0.0399965, 0.157421, -0.104758
1163.4559530220001307, -0.00122785, -0.00139591, -0.000764989, 0.0386915, 0.163978, -0.0942153
1163.4892693220001547, -0.0012341, -0.00141315, -0.000684004, 0.0384573, 0.172339, -0.0807311
1163.5225856890001523, -0.00124864, -0.00142536, -0.000596669, 0.0381832, 0.183498, -0.0681916
1163.5559020510002028, -0.00124143, -0.00147039, -0.000656765, 0.0371145, 0.193271, -0.071511
1163.5892183840001053, -0.00124169, -0.00154331, -0.000649184, 0.036233, 0.195499, -0.0665193
1163.6225385030002144, -0.00125053, -0.00158515, -0.000586749, 0.0361218, 0.192171, -0.0589921
1163.655851051000127, -0.00126997, -0.00178345, -0.000549958, 0.0338246, 0.201847, -0.0465111
1163.6893173560001742, -0.00127236, -0.00177987, -0.000502251, 0.0334594, 0.213344, -0.0426519
1163.7226341700002195, -0.00127478, -0.00178447, -0.000405274, 0.0336588, 0.215538, -0.0374967
1163.7559500510001271, -0.00128373, -0.00186181, -0.000308981, 0.0334103, 0.212668, -0.0311428
1163.7892663840002569, -0.00131136, -0.00200377, -0.000152036, 0.0324909, 0.216945, -0.0202177
1163.8225826890002281, -0.00131996, -0.0020536, -3.10577e-05, 0.0310659, 0.243943, -0.0120574
1163.8558990510000513, -0.00132984, -0.0021161, 4.06787e-05, 0.0298643, 0.262172, -0.00662018
1163.8892153840001811, -0.00134004, -0.00226378, 6.47657e-05, 0.0286342, 0.267817, -0.0025766
1163.9225316890001523, -0.00136053, -0.00241106, 0.000125141, 0.0271624, 0.28113, 0.00257278
1163.955848018000097, -0.00135873, -0.00245555, 0.00027981, 0.0273775, 0.281712, 0.0042664
1163.9891643840001052, -0.00136293, -0.00247859, 0.000398, 0.0273783, 0.28621, 0.00530621
1164.0226307180000731, -0.00136827, -0.00252267, 0.00050984, 0.0270848, 0.2932, 0.00651593
1164.0559470220000549, -0.00136457, -0.00251437, 0.00070663, 0.0272864, 0.301551, 0.0061228
1164.0892633560001741, -0.00135186, -0.00263223, 0.000707557, 0.0261777, 0.312115, 0.00852554
1164.1225796600001559, -0.00134806, -0.00266199, 0.000749517, 0.0254827, 0.324693, 0.00972083
1164.155896051000127, -0.00135443, -0.00268181, 0.000762177, 0.0246399, 0.337645, 0.011331
1164.1892123560000982, -0.00135642, -0.00262381, 0.000706534, 0.0238225, 0.350368, 0.013938
1164.222528689000228, -0.00134085, -0.00242984, 0.000720159, 0.0253451, 0.336099, 0.0110093
1164.2558450510000512, -0.00133034, -0.00233328, 0.000576357, 0.0249227, 0.338414, 0.0146548
1164.289161384000181, -0.00132992, -0.00234265, 0.000449964, 0.0242282, 0.341419, 0.0187166
1164.3224776600002315, -0.00135185, -0.0023268, 0.000352354, 0.0235995, 0.345128, 0.0221156
1164.3557940510002027, -0.00138305, -0.00228756, 0.000222817, 0.022781, 0.350042, 0.0267996
1164.3892603840001811, -0.00138581, -0.00230482, 0.000196188, 0.0220093, 0.357502, 0.0285486
1164.4225766890001523, -0.00138819, -0.00233989, 0.000170121, 0.0214749, 0.362148, 0.0300554
1164.4558930220000548, -0.00139747, -0.00239047, 0.000190435, 0.0211908, 0.36568, 0.0297128
1164.4892093510002269, -0.00137735, -0.00236574, 0.000207176, 0.0219753, 0.359909, 0.0284709
1164.5225256890000765, -0.00137245, -0.00234695, 0.000158192, 0.0223957, 0.355457, 0.0299931
1164.5558420180002486, -0.00135572, -0.00227668, 0.000115139, 0.023175, 0.34841, 0.0310914
1164.589158351000151, -0.00134835, -0.00224302, 0.000113021, 0.0235902, 0.34544, 0.0309293
1164.6224746560001222, -0.00134109, -0.00225447, 8.21463e-05, 0.0241092, 0.342964, 0.0320414
1164.6557910180001727, -0.00133317, -0.00223926, 0.00010184, 0.0246239, 0.341557, 0.0309901
1164.6891073840001809, -0.00132561, -0.00223548, 0.000173002, 0.0251412, 0.341644, 0.0278018
1164.7225736560001224, -0.00132229, -0.00214953, 0.000107363, 0.0248347, 0.338712, 0.0307745
1164.7558900510000512, -0.00131747, -0.0021647, 1.84491e-05, 0.0242327, 0.338151, 0.0349725
1164.7892063840001811, -0.0013242, -0.00216959, -1.85268e-05, 0.0237742, 0.337957, 0.0365863
1164.8225226890001522, -0.00132583, -0.00220599, -4.88171e-05, 0.0227978, 0.339359, 0.0372972
1164.8558390220000547, -0.001332, -0.00228389, -9.47347e-05, 0.0216883, 0.341938, 0.0383975
1164.8891553700002532, -0.00133926, -0.00224219, -7.66575e-05, 0.0205952, 0.341044, 0.0358165
1164.9224717220001821, -0.00135873, -0.00228735, -2.8149e-05, 0.0196579, 0.343845, 0.0313344
1164.9557880220002062, -0.00136539, -0.00225589, -5.11392e-05, 0.018246, 0.342008, 0.0301203
1164.9891043560000981, -0.00136716, -0.00231997, -6.60958e-05, 0.0170569, 0.344178, 0.0283892
1165.022420737000175, -0.00136988, -0.00246861, -4.50455e-05, 0.0163448, 0.351027, 0.0247902
1165.055887051000127, -0.00137524, -0.00251404, -1.77995e-05, 0.0168661, 0.354105, 0.0238896
1165.0892033840002568, -0.00137748, -0.002545, -3.59282e-05, 0.0175725, 0.356404, 0.0266456
1165.1225196700002016, -0.00138009, -0.00257629, 7.44654e-06, 0.0177824, 0.359248, 0.0236061
1165.1558360510000512, -0.00138267, -0.00253091, 6.60157e-05, 0.0185419, 0.359216, 0.0208288
1165.1891523510000752, -0.00137959, -0.00251167, 8.21353e-05, 0.0193014, 0.35996, 0.0211115
1165.2224686890001522, -0.00138232, -0.00252721, 0.000139313, 0.0194138, 0.362265, 0.0163699
1165.2557850510002027, -0.00138455, -0.00258269, 0.000186875, 0.0201326, 0.368608, 0.0133142
1165.2891013840001051, -0.00138592, -0.00261958, 0.000219903, 0.0213966, 0.37526, 0.0121011
1165.3224176840001292, -0.00138851, -0.00257258, 0.000341033, 0.0221473, 0.376388, 0.002971
1165.3557346360000793, -0.00139652, -0.00259227, 0.000408645, 0.0226298, 0.380485, -0.00218262
1165.389050356000098, -0.00140396, -0.00270633, 0.000440687, 0.0235536, 0.391944, -0.0038714
1165.4225166890000764, -0.00141181, -0.00276829, 0.000390615, 0.0247725, 0.399394, 0.0016049
1165.4558330170000318, -0.00142606, -0.00283803, 0.000411836, 0.0260722, 0.409021, 0.00112619
1165.4891493840002568, -0.00142254, -0.0028387, 0.000405344, 0.0263526, 0.409723, 0.00207369
1165.5224657170001592, -0.00141986, -0.00285629, 0.000416969, 0.0261649, 0.410721, 0.000823385
1165.5557820510000511, -0.00141658, -0.00288722, 0.000457717, 0.0256208, 0.412207, -0.00301435
1165.5890983550000328, -0.00141861, -0.00297003, 0.000455721, 0.025564, 0.418041, -0.00308484
1165.6224146840002049, -0.00140986, -0.00307473, 0.000392491, 0.0259781, 0.425663, 0.00153716
1165.6557310220000545, -0.00141301, -0.00308689, 0.000409124, 0.0255871, 0.426069, -0.00054014
1165.689047384000105, -0.00141078, -0.00317933, 0.000386358, 0.0252112, 0.431934, -0.000595937
1165.7223636840001291, -0.00138385, -0.00331576, 0.000308801, 0.0252351, 0.440842, 0.00306775
1165.7558300550001604, -0.00139318, -0.00338644, 0.000275203, 0.0253477, 0.445558, 0.00491016
1165.7891463840001052, -0.00139174, -0.00344585, 0.000256344, 0.0253247, 0.44958, 0.00551321
1165.8224626600001557, -0.00136158, -0.00357512, 0.000180804, 0.0253629, 0.457557, 0.00772422
1165.8557790510001269, -0.00135325, -0.00360339, 0.000129586, 0.0256394, 0.458373, 0.00991727
1165.8890953840002567, -0.0013732, -0.00365305, 0.000113143, 0.0256783, 0.46136, 0.0102807
1165.9224116840000534, -0.0013682, -0.00371842, 8.32532e-05, 0.0255276, 0.465278, 0.00973187
1165.9557280170001832, -0.00136308, -0.00366595, 3.61543e-05, 0.0258319, 0.460836, 0.0105006
1165.9890443550000327, -0.00135381, -0.00363639, 1.08682e-06, 0.0263497, 0.457453, 0.011986
1166.0223607170000832, -0.00134609, -0.0036012, -4.16803e-05, 0.0268484, 0.453775, 0.012931
1166.0556770510002025, -0.00133762, -0.00363997, -0.000107176, 0.027151, 0.454049, 0.0123926
1166.0889933510002265, -0.00132942, -0.00364356, -0.000146418, 0.027345, 0.45324, 0.0117396
1166.1224597170000834, -0.00133351, -0.00364771, -0.000165041, 0.0275236, 0.452678, 0.0116039
1166.1557760510002026, -0.00133698, -0.00367097, -0.000200434, 0.0278747, 0.452081, 0.0113351
1166.1890923510002267, -0.00133736, -0.0036658, -0.00021083, 0.0281765, 0.45086, 0.0116374
1166.2224086840001291, -0.00133589, -0.00365219, -0.000233901, 0.0284734, 0.449183, 0.0111907
1166.2557250510001268, -0.00133431, -0.00366635, -0.000268473, 0.0287293, 0.448241, 0.010299
1166.2890413840002566, -0.00133485, -0.00365681, -0.00033224, 0.0291003, 0.445752, 0.00812494
1166.322357717000159, -0.00132881, -0.00355701, -0.000341499, 0.0297175, 0.440506, 0.00787335
1166.3556740220001302, -0.00132062, -0.00353951, -0.000400727, 0.0306651, 0.435344, 0.00711622
1166.3889903550000327, -0.0013241, -0.00354723, -0.000429594, 0.0309065, 0.434116, 0.00647877
1166.4223067170000832, -0.00131319, -0.00347284, -0.000469096, 0.0312623, 0.429989, 0.0047814
1166.4557730510000511, -0.0013051, -0.00343507, -0.000522469, 0.0319379, 0.425058, 0.00376968
1166.4890893840001809, -0.00128746, -0.00337918, -0.00058093, 0.0320935, 0.421857, 0.00162767
1166.5224057170000833, -0.00127809, -0.00337163, -0.000648729, 0.0316575, 0.422497, -0.00122604
1166.5557220170001074, -0.00126017, -0.00332735, -0.000717915, 0.0317497, 0.419479, -0.00300748
1166.589038384000105, -0.0012551, -0.00323633, -0.000737407, 0.032207, 0.414081, -0.00290578
1166.6223546890000762, -0.00126877, -0.00322777, -0.00075085, 0.0323126, 0.41297, -0.00268279
1166.655671022000206, -0.0012892, -0.00322878, -0.000778728, 0.0321681, 0.413155, -0.0030704
1166.6889873510001507, -0.00132077, -0.00323872, -0.000767008, 0.0319361, 0.415006, -0.00382545
1166.7223037170001589, -0.0013528, -0.00326907, -0.000751519, 0.0317225, 0.417688, -0.00473643
1166.755620017000183, -0.00135953, -0.00328209, -0.00076656, 0.0314826, 0.419281, -0.0053137
1166.7889363840001806, -0.00134675, -0.0032723, -0.000805103, 0.0313668, 0.41854, -0.00449977
1166.8224026890002278, -0.0013549, -0.00327704, -0.000799704, 0.0317108, 0.417258, -0.00371181
1166.855719051000051, -0.0013487, -0.00334567, -0.000794772, 0.0321538, 0.419557, -0.00324187
1166.8890353840001808, -0.00135231, -0.00338637, -0.000768208, 0.0321529, 0.422824, -0.0056022
1166.9223517170000832, -0.00136522, -0.0033942, -0.000715314, 0.032054, 0.425054, -0.0101097
1166.9556680510002025, -0.00137002, -0.00343205, -0.00070403, 0.0321365, 0.42779, -0.01111
1166.9889843550001842, -0.00137588, -0.00346118, -0.000699232, 0.0322046, 0.43, -0.0117933
1167.022300684000129, -0.00137655, -0.00343069, -0.000651608, 0.0324909, 0.428089, -0.0142637
1167.0556190890001744, -0.00137206, -0.00345359, -0.000631894, 0.032747, 0.429524, -0.0153155
1167.0889333840002564, -0.00138597, -0.0034725, -0.000650064, 0.0324147, 0.430858, -0.0147201
1167.1222501170002488, -0.00138846, -0.00347738, -0.000631868, 0.032195, 0.431406, -0.0168229
1167.155716122000058, -0.00140762, -0.00351638, -0.00058303, 0.0323858, 0.435026, -0.0209307
1167.1890323840002566, -0.0014082, -0.00353751, -0.000565143, 0.0325408, 0.436933, -0.0222313
1167.2223486890002278, -0.00140414, -0.00353643, -0.000548145, 0.0328115, 0.437521, -0.0234226
1167.2556650600001831, -0.00140677, -0.00354977, -0.000524071, 0.0331925, 0.439646, -0.0251646
1167.2889813550000326, -0.00140574, -0.00358834, -0.000517979, 0.0337599, 0.444025, -0.0254936
1167.3222977220000303, -0.00140599, -0.00361627, -0.000522249, 0.034297, 0.447475, -0.0252453
1167.3556140310001865, -0.00141239, -0.00364104, -0.000526852, 0.0345297, 0.44985, -0.0249192
1167.388930350000237, -0.0014194, -0.00366794, -0.000508744, 0.0349431, 0.453081, -0.026038
1167.4222467170002346, -0.00143562, -0.00369919, -0.00047277, 0.0350523, 0.45581, -0.0278
1167.4555630170000313, -0.00144007, -0.00373278, -0.000460227, 0.0348043, 0.457231, -0.0276527
1167.4888793550001083, -0.00144945, -0.00376532, -0.000440811, 0.0351745, 0.460417, -0.0286398
1167.5223457170002348, -0.00145824, -0.00376855, -0.0004156, 0.0354734, 0.461635, -0.029981
1167.5556620500001372, -0.0014622, -0.00375854, -0.000417072, 0.035878, 0.461936, -0.0309385
1167.5889783600000555, -0.00146631, -0.00375664, -0.000412344, 0.0361899, 0.462452, -0.0317118
1167.6222946890002277, -0.00147177, -0.00373124, -0.000389476, 0.0365189, 0.461872, -0.0331413
1167.6556110500000614, -0.00146593, -0.0036979, -0.000389933, 0.0370014, 0.460803, -0.0348152
1167.6889273500000854, -0.00145269, -0.00365617, -0.000384305, 0.0370357, 0.459034, -0.0356336
1167.7222436840002047, -0.00144917, -0.00366217, -0.000405034, 0.0371596, 0.459308, -0.035897
1167.7555600220000542, -0.00145775, -0.00370761, -0.000433101, 0.0376721, 0.460862, -0.0364545
1167.7888763220000783, -0.00145434, -0.00368595, -0.000449417, 0.0380047, 0.460132, -0.0376927
1167.8221927170002346, -0.00144239, -0.00365052, -0.000470891, 0.0386461, 0.458708, -0.0399283
1167.855659050000213, -0.00144628, -0.00366204, -0.000497878, 0.0388936, 0.45892, -0.0408159
1167.8889753840001049, -0.00142822, -0.00365898, -0.000546859, 0.0391148, 0.458705, -0.043045
1167.922291684000129, -0.00142759, -0.00366739, -0.0005797, 0.0394012, 0.458307, -0.0445785
1167.9556080500001372, -0.00138124, -0.00362806, -0.000653583, 0.0397557, 0.457155, -0.0487628
1167.9889243840002564, -0.00131035, -0.00364151, -0.000735763, 0.0402343, 0.455648, -0.0527838
1168.0222406880002382, -0.00126061, -0.00366945, -0.000796221, 0.0405019, 0.454275, -0.0556863
1168.0555581790001725, -0.00124502, -0.00363682, -0.000826974, 0.0405738, 0.453981, -0.057459
1168.0888733500000853, -0.00123677, -0.0036211, -0.000842449, 0.0404879, 0.454198, -0.0585707
1168.1221896880001623, -0.00122936, -0.00359733, -0.000855595, 0.0403617, 0.454726, -0.0596857
1168.155506017000107, -0.00120041, -0.00357357, -0.000884656, 0.0399414, 0.456282, -0.0624687
1168.1889723840001807, -0.0011827, -0.0035361, -0.000899727, 0.03967, 0.457616, -0.0642885
1168.2222886880001624, -0.00119453, -0.00350995, -0.000892899, 0.0395069, 0.458671, -0.0648556
1168.2556050170001072, -0.00117899, -0.00348987, -0.000905247, 0.0392019, 0.459977, -0.0668129
1168.2889213270002529, -0.0011944, -0.00346972, -0.000882622, 0.0390907, 0.460936, -0.0670716
1168.3222377170002346, -0.00121408, -0.00344641, -0.000867478, 0.0391759, 0.460733, -0.0665566
1168.3555540220002058, -0.00122859, -0.00345825, -0.000869097, 0.0391285, 0.460807, -0.0668796
1168.3888703840002563, -0.00127419, -0.00349885, -0.000837288, 0.039154, 0.461548, -0.0669584
1168.4221866880002381, -0.00131975, -0.00350302, -0.000792265, 0.0392837, 0.461911, -0.0673574
1168.4555030220001299, -0.00134046, -0.00350475, -0.000757215, 0.039586, 0.461408, -0.0669385
1168.4888193840001804, -0.00136378, -0.00351145, -0.000728189, 0.0394171, 0.462726, -0.0687807
1168.5221357170000829, -0.00138012, -0.00352016, -0.000683203, 0.0392502, 0.464503, -0.0715829
1168.5556020220001301, -0.00139156, -0.00353236, -0.000652519, 0.0394322, 0.465228, -0.0728832
1168.5889183550000325, -0.00139925, -0.0035413, -0.000622792, 0.039782, 0.465443, -0.0738619
1168.6222346880001624, -0.00142238, -0.00356387, -0.000570136, 0.0399739, 0.467309, -0.0769861
1168.6555510500002129, -0.00142894, -0.0035742, -0.000529154, 0.0402581, 0.468167, -0.0793293
1168.688867355000184, -0.00143205, -0.00358182, -0.000494854, 0.0405759, 0.468751, -0.0813057
1168.7221837170002345, -0.00144106, -0.00360066, -0.000460272, 0.0408078, 0.470233, -0.083375
1168.7555000220002057, -0.00144294, -0.00361667, -0.000436611, 0.0409872, 0.471498, -0.0848395
1168.788816350000161, -0.00143933, -0.00363068, -0.000443023, 0.0410684, 0.472295, -0.0843996
1168.822132688000238, -0.00144405, -0.00367353, -0.000442205, 0.0414574, 0.475095, -0.0846768
1168.8554490220001298, -0.00144053, -0.00369409, -0.000453824, 0.041543, 0.476264, -0.0839198
1168.8889153840002564, -0.00143595, -0.00369739, -0.000456405, 0.0416494, 0.476424, -0.0839107
1168.9222316840000531, -0.00144014, -0.00369504, -0.000454087, 0.0421127, 0.476326, -0.0850403
1168.9555480500000613, -0.00144908, -0.00370528, -0.000443455, 0.0426381, 0.47709, -0.0865652
1168.9888643840001805, -0.001447, -0.0037084, -0.000433617, 0.0428749, 0.47732, -0.0873631
1169.022180660000231, -0.00143799, -0.00369212, -0.000439264, 0.0430022, 0.476223, -0.0876922
1169.0554970500002128, -0.00142365, -0.00367189, -0.000437001, 0.0428138, 0.475112, -0.0874656
1169.0888133840001046, -0.00140859, -0.00362553, -0.000426878, 0.0426977, 0.472763, -0.0881935
1169.1221296840001287, -0.00138963, -0.00358575, -0.000421068, 0.0427336, 0.470836, -0.0891222
1169.1554460500001369, -0.00138331, -0.00357299, -0.000428125, 0.0428184, 0.470194, -0.0896514
1169.1887643450002088, -0.00137618, -0.00356271, -0.00043326, 0.0430297, 0.469499, -0.0904974
1169.2220786840000528, -0.00136237, -0.00353817, -0.000459276, 0.0432534, 0.468533, -0.091976
1169.2555450220002058, -0.00135486, -0.00354275, -0.00048954, 0.0434932, 0.468459, -0.0931507
1169.2888613690001876, -0.00134144, -0.00351176, -0.00049265, 0.0437539, 0.467556, -0.0944236
1169.3221777170001587, -0.00131916, -0.00348553, -0.000534684, 0.0440771, 0.467014, -0.0967589
1169.3554939930002092, -0.00131717, -0.00347559, -0.000574263, 0.0440245, 0.467089, -0.0980613
1169.3888103600002069, -0.00131364, -0.0034538, -0.000607584, 0.0437776, 0.46724, -0.0993085
1169.4221267170000829, -0.00130457, -0.00347179, -0.000645098, 0.0437511, 0.467291, -0.100642
1169.4554430170001069, -0.00130177, -0.00347858, -0.000661265, 0.0437377, 0.467209, -0.101333
1169.4887593830001151, -0.00129798, -0.003479, -0.000686452, 0.0438004, 0.466995, -0.102452
1169.5220757170002344, -0.00128905, -0.00344797, -0.000725034, 0.0439824, 0.466941, -0.104042
1169.5553920500001368, -0.00127272, -0.00341009, -0.000774058, 0.0438665, 0.467053, -0.106675
1169.588858326000036, -0.00127511, -0.00340177, -0.000803863, 0.0436024, 0.466646, -0.108812
1169.6221746880000865, -0.00127512, -0.00339866, -0.000812075, 0.0433984, 0.466497, -0.109871
1169.655491050000137, -0.00129842, -0.00339868, -0.000805048, 0.0431377, 0.466472, -0.110583
1169.688807350000161, -0.00130278, -0.00339652, -0.000803299, 0.0427558, 0.466287, -0.112205
1169.7221236550001322, -0.00131406, -0.00338957, -0.000784272, 0.0423513, 0.466406, -0.113549
1169.7554400170001827, -0.00136207, -0.00336159, -0.000758234, 0.042227, 0.467095, -0.113509
1169.7887563550000323, -0.00139044, -0.00337471, -0.00073191, 0.0421023, 0.467089, -0.113538
1169.8220728170001621, -0.00141894, -0.00338875, -0.000711406, 0.0418468, 0.466788, -0.114564
1169.8553890500002126, -0.00144236, -0.0033916, -0.000687401, 0.041747, 0.466819, -0.115001
1169.8887053550001838, -0.00147264, -0.00339218, -0.000660145, 0.0417096, 0.466914, -0.11561
1169.9220217170002343, -0.00149824, -0.0033841, -0.000635221, 0.0415262, 0.466536, -0.116973
1169.9554880500002128, -0.00151923, -0.00338546, -0.000622827, 0.0413889, 0.466205, -0.117948
1169.9888043550001839, -0.00152209, -0.00339834, -0.000615804, 0.04126, 0.465951, -0.118721
1170.0221206880000864, -0.00152294, -0.00341673, -0.000589152, 0.0412929, 0.46659, -0.119667
1170.0554372170001898, -0.00153206, -0.0034239, -0.00055145, 0.0415348, 0.468042, -0.120623
1170.0887533830000393, -0.00153105, -0.00342796, -0.000543515, 0.0416893, 0.468766, -0.120648
1170.1220696880002379, -0.00152915, -0.00343701, -0.00053743, 0.0417799, 0.46934, -0.120773
1170.155386050000061, -0.00152556, -0.00345693, -0.000527129, 0.0419459, 0.470441, -0.120987
1170.1887023830001908, -0.00152774, -0.00345445, -0.000499098, 0.0418216, 0.470264, -0.121966
1170.2220187170000827, -0.00154052, -0.00348265, -0.000447434, 0.0421088, 0.472246, -0.123524
1170.2553350500002125, -0.00154205, -0.0034854, -0.000425409, 0.0419625, 0.472132, -0.124045
1170.2888013310000588, -0.00154322, -0.00347934, -0.000397886, 0.0418124, 0.471909, -0.124575
1170.3221177170000828, -0.00154395, -0.00346358, -0.000376849, 0.0417042, 0.47162, -0.124936
1170.3554340210000646, -0.00154516, -0.00347222, -0.000372626, 0.0416815, 0.471709, -0.12486
1170.3887503830001151, -0.00154277, -0.00347046, -0.000369077, 0.0417869, 0.471829, -0.125121
1170.4220667170002343, -0.00154444, -0.00346917, -0.000360007, 0.0419554, 0.472071, -0.125561
1170.4553830210002161, -0.00154514, -0.00346233, -0.0003467, 0.0421337, 0.47233, -0.126024
1170.4886993830000392, -0.00155206, -0.00346667, -0.00033468, 0.0422858, 0.472311, -0.126293
1170.5220157170001585, -0.00155673, -0.00345244, -0.000325331, 0.0426423, 0.472725, -0.12734
1170.5553320500000609, -0.00155733, -0.00343583, -0.000322664, 0.0426155, 0.473136, -0.12725
1170.5886483830001907, -0.00154989, -0.00342639, -0.000346435, 0.042926, 0.473405, -0.129286
1170.6219647170000826, -0.00154916, -0.00342857, -0.000348516, 0.0430855, 0.473191, -0.129943
1170.6554310500000611, -0.00154881, -0.00340546, -0.000343365, 0.0433212, 0.474161, -0.130512
1170.6887473500000851, -0.00154617, -0.00338754, -0.000338028, 0.0436473, 0.474803, -0.131393
1170.7220637170000828, -0.00154553, -0.00338374, -0.000340934, 0.0439199, 0.47473, -0.132591
1170.7553800170001068, -0.00153336, -0.00338516, -0.000366517, 0.0442959, 0.474497, -0.13576
1170.788696383000115, -0.00152773, -0.00338619, -0.000387926, 0.0445317, 0.474339, -0.138032
1170.8220126830001391, -0.00152202, -0.00335195, -0.000384161, 0.0449236, 0.476581, -0.138736
1170.8553290170000309, -0.00149599, -0.00333415, -0.000419965, 0.0449662, 0.479518, -0.141728
1170.8886453830000391, -0.00147777, -0.00332814, -0.000432324, 0.0448407, 0.480904, -0.142429
1170.9219617170001584, -0.00147349, -0.00330687, -0.000440391, 0.0448448, 0.483434, -0.142944
1170.9552780500000608, -0.00148714, -0.00330039, -0.000447041, 0.0446132, 0.48463, -0.143358
1170.9887443500001609, -0.0014947, -0.00329132, -0.000447363, 0.0443893, 0.486598, -0.143071
1171.0220607170001585, -0.00151333, -0.00326957, -0.000447546, 0.0442878, 0.48987, -0.142461
1171.0553770170001826, -0.00152478, -0.00323996, -0.000459716, 0.0442693, 0.494435, -0.14333
1171.088693350000085, -0.00153002, -0.00322037, -0.000461491, 0.0440841, 0.497635, -0.143718
1171.1220097120001356, -0.0015413, -0.00321846, -0.000451899, 0.0439927, 0.497898, -0.142811
1171.1553260210000644, -0.00156899, -0.00322345, -0.000436644, 0.0435426, 0.496701, -0.142716
1171.1886423500002365, -0.00157612, -0.0032226, -0.000429053, 0.0432287, 0.496277, -0.143231
1171.2219586970002183, -0.00159258, -0.00320907, -0.000430611, 0.0427985, 0.497203, -0.145044
1171.2552750500001366, -0.00161489, -0.00320961, -0.000423636, 0.0424256, 0.495968, -0.145887
1171.2885913550001078, -0.00162838, -0.00321574, -0.000411341, 0.0421678, 0.494226, -0.145787
1171.3220577400002185, -0.00163785, -0.00322846, -0.000386915, 0.0417604, 0.49107, -0.14517
1171.3553740500001368, -0.00163523, -0.00322844, -0.000365474, 0.0416229, 0.491162, -0.144051
1171.3886903830000392, -0.00163522, -0.00322894, -0.000345868, 0.0413907, 0.490513, -0.143486
1171.4220067070000368, -0.00163047, -0.00323587, -0.000319718, 0.0412131, 0.489496, -0.142242
1171.4553230500000609, -0.00161706, -0.00323095, -0.000303951, 0.0414623, 0.492365, -0.140684
1171.4886393210001643, -0.00161698, -0.0032309, -0.000281894, 0.0414339, 0.493037, -0.139508
1171.5219556550000561, -0.0016199, -0.00322538, -0.000258297, 0.0414012, 0.494472, -0.138259
1171.5552720210000643, -0.00161094, -0.00323447, -0.000232218, 0.0414691, 0.494533, -0.137151
1171.58858837400021, -0.00160327, -0.00322812, -0.000209827, 0.0417746, 0.497943, -0.135971
1171.6219046590001653, -0.00159706, -0.00324513, -0.000196534, 0.04184, 0.496815, -0.13564
1171.6552210500001365, -0.00159402, -0.0032499, -0.000186604, 0.0417657, 0.49601, -0.135348
1171.688687383000115, -0.00158663, -0.00327101, -0.000164491, 0.041993, 0.49579, -0.134974
1171.7220037160002448, -0.00158194, -0.00327839, -0.000142906, 0.0422049, 0.496986, -0.134661
1171.7553200500001367, -0.00157956, -0.00328507, -0.000123662, 0.0422585, 0.497159, -0.134198
1171.7886363500001607, -0.0015778, -0.00329006, -0.000117985, 0.0426154, 0.499112, -0.13462
1171.8219527160001689, -0.00156983, -0.00331469, -0.000103626, 0.0428847, 0.4986, -0.134754
1171.8552690500000608, -0.0015663, -0.00332355, -9.03924e-05, 0.0430422, 0.499042, -0.13467
1171.8885853830001906, -0.00156529, -0.00332759, -6.87727e-05, 0.0434416, 0.501441, -0.134799
1171.9219016880001618, -0.00156523, -0.00332785, -6.16073e-05, 0.0436824, 0.502977, -0.135042
1171.9552180160001171, -0.00156368, -0.00332012, -5.15958e-05, 0.0438724, 0.505208, -0.135058
1171.9885343830001148, -0.00156509, -0.00331294, -2.93975e-05, 0.0446915, 0.510446, -0.136019
1172.0220007210000404, -0.00156436, -0.00330904, -1.94274e-05, 0.0452754, 0.513621, -0.136966
1172.0553170500002125, -0.00156676, -0.00329931, -1.82723e-05, 0.0456821, 0.516288, -0.137738
1172.0886333830001149, -0.0015703, -0.00327713, -1.48781e-05, 0.0461083, 0.52032, -0.138303
1172.1219497160002447, -0.00157189, -0.00325298, -2.01768e-05, 0.0463793, 0.52367, -0.138781
1172.1552660210002159, -0.00156359, -0.00324984, -4.31987e-05, 0.0465702, 0.523652, -0.139985
1172.188582383000039, -0.00156404, -0.00325487, -7.3753e-05, 0.0465185, 0.522155, -0.141149
1172.2218987160001689, -0.00157445, -0.00323232, -9.95958e-05, 0.046566, 0.524238, -0.141797
1172.2552150160001929, -0.00158487, -0.0032124, -0.000110019, 0.0463639, 0.526264, -0.14164
1172.2885313930000848, -0.00158771, -0.00319933, -0.000126186, 0.0462478, 0.527647, -0.142112
1172.3218476830002146, -0.00155751, -0.0032031, -0.000146774, 0.0461212, 0.527163, -0.14291
1172.3551640500002122, -0.00156233, -0.00319515, -0.000162222, 0.0460347, 0.527917, -0.143288
1172.3886303830001907, -0.00157738, -0.00319779, -0.000152576, 0.0457124, 0.528378, -0.143884
1172.4219466880001619, -0.00156858, -0.00319782, -0.000166542, 0.0453002, 0.52942, -0.145449
1172.4552630160001172, -0.00156732, -0.00319825, -0.000181837, 0.045202, 0.529426, -0.14585
1172.4885793830001148, -0.00157251, -0.00319252, -0.000192162, 0.0451372, 0.529815, -0.146066
1172.5218956640001124, -0.00158991, -0.00317593, -0.000183852, 0.0450123, 0.530876, -0.146711
1172.5552120160000413, -0.00160968, -0.00317949, -0.000170125, 0.0448285, 0.530635, -0.147912
1172.588528383000039, -0.00164165, -0.0031823, -0.000146207, 0.0445313, 0.530413, -0.150269
1172.6218446880002375, -0.00166571, -0.00317988, -0.00013189, 0.0443106, 0.530265, -0.152035
1172.6551610500000606, -0.00166549, -0.00318382, -0.000122417, 0.0442364, 0.53011, -0.152965
1172.6884773500000847, -0.00166024, -0.00320395, -0.000116931, 0.0441767, 0.529985, -0.153998
1172.7219437160001689, -0.00167821, -0.00321291, -9.04839e-05, 0.044097, 0.530065, -0.156525
1172.755260016000193, -0.00169354, -0.00321919, -6.37306e-05, 0.0441917, 0.530557, -0.158285
1172.7885763830001906, -0.00168856, -0.0032388, -4.58912e-05, 0.0441356, 0.530941, -0.16043
1172.8218926880001618, -0.00167938, -0.00325089, -3.14318e-05, 0.0441955, 0.531606, -0.16166
1172.8552089880001859, -0.0016695, -0.00327838, -1.71052e-05, 0.0443297, 0.533293, -0.162932
1172.8885253540001941, -0.00166382, -0.00329411, -6.80118e-06, 0.0441734, 0.533387, -0.164401
1172.9218417160002446, -0.00165531, -0.00331018, 1.52675e-05, 0.0442852, 0.534681, -0.166364
1172.9551580160000412, -0.00163805, -0.00332368, 3.42807e-05, 0.0445197, 0.536378, -0.167719
1172.9884743970001182, -0.00163556, -0.00331992, 5.59879e-05, 0.0443224, 0.535287, -0.169691
1173.0217906830000629, -0.00163388, -0.00331777, 7.27117e-05, 0.0442904, 0.534963, -0.171141
1173.0551070160001927, -0.00163391, -0.0033331, 7.62756e-05, 0.0444877, 0.536841, -0.171631
1173.088573383000039, -0.00163133, -0.00335282, 8.76754e-05, 0.0448383, 0.539649, -0.172959
1173.1218897160001688, -0.00162709, -0.00337834, 9.39849e-05, 0.0453754, 0.543589, -0.174231
1173.15520602100014, -0.00162407, -0.00339214, 0.000100351, 0.0455723, 0.545384, -0.175064
1173.1885223540000425, -0.00163111, -0.0034016, 0.000109818, 0.0458965, 0.547284, -0.176522
1173.2218386830002146, -0.00162972, -0.00339413, 9.49792e-05, 0.0457316, 0.546123, -0.175053
1173.2551550500002122, -0.00162558, -0.00339718, 8.45285e-05, 0.0457402, 0.546334, -0.174282
1173.288471354000194, -0.00162726, -0.00340941, 8.18128e-05, 0.04612, 0.548329, -0.175136
1173.3217877160002445, -0.00162818, -0.00340921, 7.94711e-05, 0.0462385, 0.548603, -0.175421
1173.3551040210002157, -0.00162863, -0.00341263, 7.18687e-05, 0.0464633, 0.549298, -0.175767
1173.3884203830000388, -0.00162936, -0.00340927, 6.31838e-05, 0.0466988, 0.549469, -0.176215
1173.4218867160002446, -0.00162927, -0.00339652, 4.13182e-05, 0.0468323, 0.548691, -0.175831
1173.4552029920000678, -0.0016302, -0.00338788, 3.12964e-05, 0.046903, 0.54814, -0.175759
1173.4885193830000389, -0.00163337, -0.00337991, 1.13172e-05, 0.0470293, 0.547698, -0.175541
1173.5218357160001688, -0.00163079, -0.00338195, -8.35427e-06, 0.0471481, 0.547921, -0.175198
1173.5551520500000606, -0.00160409, -0.00340402, -5.55642e-05, 0.0469514, 0.548974, -0.172619
1173.5884683540000424, -0.00159316, -0.00342213, -0.000102194, 0.0469915, 0.549979, -0.171001
1173.6217851970002357, -0.00159463, -0.00341266, -0.000125745, 0.0469262, 0.549253, -0.170304
1173.6551010350001434, -0.00159387, -0.00339467, -0.000183983, 0.0465449, 0.547671, -0.168113
1173.6884173210000881, -0.00158305, -0.00339981, -0.00025032, 0.0460078, 0.547309, -0.165309
1173.7217336830001386, -0.00156828, -0.0034326, -0.000282953, 0.0456369, 0.548827, -0.163548
1173.7550500490001468, -0.001566, -0.00343665, -0.000316575, 0.0453276, 0.548705, -0.162322
1173.7885163830001147, -0.0015708, -0.00342002, -0.000335558, 0.0450554, 0.547461, -0.161739
1173.8218326880000859, -0.00157155, -0.00341734, -0.000350141, 0.0448749, 0.547112, -0.161328
1173.855149049000147, -0.00158216, -0.00342194, -0.000351762, 0.0445872, 0.547201, -0.161336
1173.8884653540001182, -0.00159985, -0.00342247, -0.000349133, 0.0442868, 0.547039, -0.161549
1173.9217821690001529, -0.0016247, -0.00341615, -0.000346094, 0.0440536, 0.546483, -0.161834
1173.9550980160001927, -0.0016416, -0.00341142, -0.000331083, 0.0440462, 0.546225, -0.162534
1173.9884143830001904, -0.00164168, -0.00341391, -0.000321983, 0.0440383, 0.546423, -0.162994
1174.0217356390000987, -0.00163374, -0.00342418, -0.000308798, 0.044003, 0.547196, -0.163807
1174.055063501000177, -0.00162935, -0.00343904, -0.000293831, 0.0440307, 0.548445, -0.164816
1174.0883912670001337, -0.00162905, -0.00344121, -0.000282797, 0.0439122, 0.548425, -0.165635
1174.1217190890001802, -0.00162279, -0.00346424, -0.000275683, 0.0438416, 0.550448, -0.166399
1174.1551969350000491, -0.00162094, -0.0034631, -0.000261726, 0.0436978, 0.549998, -0.167543
1174.1885247290001644, -0.00161342, -0.0034606, -0.000250248, 0.0434897, 0.54924, -0.168407
1174.2218524900001739, -0.00160431, -0.00345327, -0.000244621, 0.0432172, 0.547774, -0.168636
1174.2551802890002364, -0.00159929, -0.00345758, -0.00022958, 0.0431409, 0.548047, -0.169876
1174.2885080830001243, -0.00158899, -0.00347777, -0.000219739, 0.0433522, 0.550857, -0.171094
1174.3218358730000546, -0.0015827, -0.00348065, -0.000220778, 0.0433743, 0.551217, -0.170992
1174.3551637000000483, -0.00158289, -0.00348407, -0.000222091, 0.0433407, 0.551517, -0.170757
1174.3884914610000578, -0.00157967, -0.00350579, -0.000224344, 0.0435841, 0.55471, -0.171158
1174.4218192880000515, -0.00157633, -0.00350949, -0.000226407, 0.0437172, 0.555503, -0.171438
1174.4551470820001668, -0.00156556, -0.00352442, -0.000229217, 0.0437525, 0.557247, -0.171116
1174.4886248950001573, -0.00155987, -0.00352443, -0.000230598, 0.0438732, 0.557547, -0.171478
1174.5219526890000452, -0.00155993, -0.00351761, -0.00023156, 0.0438196, 0.556691, -0.171277
1174.5552805170002557, -0.0015583, -0.00351807, -0.000246135, 0.0437114, 0.556544, -0.169937
1174.5886083110001437, -0.00156117, -0.00353068, -0.000259576, 0.0437807, 0.558033, -0.169431
1174.6219363530001374, -0.00156119, -0.00353814, -0.000267779, 0.044011, 0.559241, -0.170147
1174.6552638660000412, -0.00156245, -0.00354035, -0.00026862, 0.0442546, 0.559808, -0.171377
1174.6885916930000349, -0.00156963, -0.00354869, -0.000284169, 0.044236, 0.560673, -0.170661
1174.7219194870001502, -0.00157092, -0.00353557, -0.000287049, 0.0445225, 0.55989, -0.172462
1174.7552472810000381, -0.00156764, -0.00353039, -0.00027626, 0.0446811, 0.559491, -0.173663
1174.7885750470002222, -0.00157794, -0.00351631, -0.000292208, 0.0446791, 0.558565, -0.173692
1174.8219028700000308, -0.00157879, -0.00350694, -0.00029051, 0.0449003, 0.557978, -0.175122
1174.8553806870002063, -0.00156966, -0.00347995, -0.000267699, 0.0448024, 0.555695, -0.175394
1174.8887084480002159, -0.0015753, -0.00350913, -0.000304633, 0.0445386, 0.558078, -0.173164
1174.9220362700000351, -0.00157798, -0.00350183, -0.000310667, 0.0444683, 0.557689, -0.172958
1174.9553640690000975, -0.00157956, -0.00348039, -0.000319648, 0.0444783, 0.556398, -0.173432
1174.9886918920001335, -0.00158011, -0.00347122, -0.000311832, 0.0449835, 0.555186, -0.175917
1175.022015096000132, -0.00158066, -0.00346215, -0.000311362, 0.044853, 0.554814, -0.175465
1175.0553310170000714, -0.00157579, -0.00345965, -0.000313144, 0.0443214, 0.555611, -0.173225
1175.0886473830000796, -0.00158362, -0.00345371, -0.000338152, 0.0440753, 0.556049, -0.172558
1175.1219637160002094, -0.00159903, -0.00346183, -0.000369929, 0.0439484, 0.557111, -0.172268
1175.155430054000135, -0.00159678, -0.00345375, -0.000374329, 0.0435819, 0.557839, -0.171119
1175.1887463490002119, -0.00161511, -0.00341914, -0.000408663, 0.0432247, 0.557504, -0.170829
1175.2220627160002095, -0.00161968, -0.00341834, -0.000419919, 0.0430969, 0.557987, -0.17064
1175.2553790210001807, -0.00162097, -0.0034164, -0.000436751, 0.0429754, 0.558378, -0.170584
1175.2886953210002048, -0.00163241, -0.00340949, -0.000455374, 0.042983, 0.557991, -0.17095
1175.3220117160001337, -0.00164517, -0.00339264, -0.000472397, 0.0430043, 0.557124, -0.171376
1175.3553280160001577, -0.00165284, -0.00338166, -0.000501925, 0.0428204, 0.557352, -0.171551
1175.3886443490000602, -0.00165608, -0.00339344, -0.000519524, 0.0425335, 0.559062, -0.171143
1175.4219607160000578, -0.0016671, -0.00339034, -0.00052418, 0.0425952, 0.558605, -0.171326
1175.4552770250002141, -0.00167481, -0.00337473, -0.000531459, 0.0425029, 0.558363, -0.171321
1175.4885933590001059, -0.00167873, -0.00336021, -0.00053967, 0.0425259, 0.557552, -0.171423
1175.5220596830001796, -0.00168846, -0.00335593, -0.000547351, 0.0427984, 0.555926, -0.171788
1175.5553760490001878, -0.00168195, -0.00335476, -0.000537989, 0.0427907, 0.555965, -0.171856
1175.5886923440000373, -0.00167465, -0.00336027, -0.000518315, 0.0427463, 0.556658, -0.172135
1175.6220086830001037, -0.00168168, -0.00336529, -0.000512161, 0.0427692, 0.556924, -0.172299
1175.6553250210001806, -0.0016798, -0.00337786, -0.000506513, 0.0425578, 0.558753, -0.17216
1175.6886413830002311, -0.00167238, -0.00339092, -0.000490883, 0.0423204, 0.560982, -0.172355
1175.7219576870002129, -0.00167395, -0.00338115, -0.000521705, 0.0424031, 0.55948, -0.171411
1175.7552740160001576, -0.00168622, -0.00336259, -0.000539506, 0.0421214, 0.559476, -0.17051
1175.7885903830001553, -0.00169883, -0.00335971, -0.000534348, 0.0419516, 0.560319, -0.170564
1175.821906687000137, -0.0017238, -0.00334481, -0.000532009, 0.0421417, 0.557921, -0.170902
1175.8553730490000362, -0.0017451, -0.00333233, -0.000523845, 0.0420233, 0.557794, -0.17121
1175.8886893830001554, -0.00177259, -0.00333373, -0.000532882, 0.0423188, 0.555335, -0.171161
1175.9220057160000579, -0.00167485, -0.00324899, -0.000542606, 0.042888, 0.543318, -0.171681
1175.9553220210002564, -0.00167344, -0.00324646, -0.000541508, 0.0428658, 0.543288, -0.171722
1175.9886383820000901, -0.00168848, -0.00324125, -0.000551054, 0.0427056, 0.544406, -0.17103
1176.0219547160002094, -0.00171623, -0.00323827, -0.000561535, 0.0425537, 0.545902, -0.170313
1176.0552709870000854, -0.00172847, -0.00325375, -0.000571915, 0.0422711, 0.5512, -0.169379
1176.0885873820002416, -0.00173241, -0.00326671, -0.000556049, 0.0424563, 0.550638, -0.170357
1176.1219037160001335, -0.00173726, -0.00327141, -0.000543494, 0.0427267, 0.547792, -0.171308
1176.1552233540000998, -0.00171061, -0.00328848, -0.000515375, 0.0427163, 0.550598, -0.172801
1176.1885363820001658, -0.00172717, -0.0032876, -0.000526899, 0.042455, 0.554201, -0.17189
1176.2220027160001337, -0.00173403, -0.00328878, -0.00053006, 0.0423799, 0.555474, -0.171658
1176.255318987000237, -0.00173651, -0.00329202, -0.000531216, 0.0422999, 0.557027, -0.17154
1176.288635387000113, -0.00173831, -0.00328151, -0.000561134, 0.0424528, 0.553179, -0.169655
1176.3219517160000578, -0.00170185, -0.0032388, -0.000557007, 0.0424111, 0.547501, -0.17013
1176.3552680490001876, -0.00173862, -0.00325802, -0.000582105, 0.0420525, 0.553832, -0.168281
1176.3885843970001588, -0.00176247, -0.00324733, -0.000593551, 0.0417538, 0.555284, -0.167536
1176.4219006870000612, -0.00176704, -0.00324663, -0.00059368, 0.041564, 0.556835, -0.167473
1176.4552170210001805, -0.00177959, -0.00323923, -0.00060614, 0.0413545, 0.557376, -0.166665
1176.4885333540000829, -0.00178364, -0.00324509, -0.000601398, 0.0411604, 0.559656, -0.166902
1176.5218496590000541, -0.00182739, -0.00324069, -0.000627407, 0.0409439, 0.5604, -0.165204
1176.5553160160002335, -0.00185529, -0.00324302, -0.000636062, 0.0408871, 0.560935, -0.164624
1176.5886323490001359, -0.00185885, -0.00325368, -0.00062828, 0.0407496, 0.563051, -0.165021
1176.62194869200016, -0.00187345, -0.00326093, -0.000626984, 0.0405845, 0.564857, -0.164953
1176.655265049000036, -0.00190082, -0.0032586, -0.000634095, 0.0403722, 0.565885, -0.164392
1176.6885813820001658, -0.00190665, -0.00325497, -0.000635003, 0.0401945, 0.566065, -0.164126
1176.7218977160000577, -0.00190496, -0.00325868, -0.000636202, 0.0400298, 0.566985, -0.163836
1176.7552139870001611, -0.00190683, -0.00326034, -0.000632398, 0.0403167, 0.566611, -0.164418
1176.7885303490002116, -0.0019186, -0.00325598, -0.000644755, 0.040414, 0.56568, -0.163713
1176.8218466870000611, -0.0019288, -0.00324783, -0.000659135, 0.0404107, 0.564356, -0.162784
1176.855163020000191, -0.00195246, -0.00323943, -0.00068172, 0.0398506, 0.564574, -0.160565
1176.8884793820002415, -0.00196153, -0.00322585, -0.000684303, 0.0395492, 0.563632, -0.160185
1176.9219457160002094, -0.0019666, -0.0032285, -0.000689305, 0.0396041, 0.563935, -0.15991
1176.9552620490001118, -0.00196572, -0.00322908, -0.000686345, 0.0394036, 0.564573, -0.159822
1176.9885783820002416, -0.00196012, -0.00323764, -0.000681488, 0.0391477, 0.566515, -0.159654
1177.0218946870002128, -0.00195837, -0.00324965, -0.00070004, 0.0387068, 0.569198, -0.157303
1177.0552110160001575, -0.00194622, -0.00325771, -0.000717574, 0.0385628, 0.570636, -0.155595
1177.08852734900006, -0.00192705, -0.00326761, -0.000737938, 0.0382668, 0.572658, -0.153339
1177.1218436870001369, -0.0018999, -0.00327398, -0.000754785, 0.0380884, 0.573863, -0.151639
1177.1551600200000394, -0.00186453, -0.00328078, -0.00076531, 0.0379404, 0.575037, -0.150447
1177.1884763820000899, -0.0018378, -0.00328523, -0.000782104, 0.0378022, 0.57593, -0.148902
1177.2217927160002091, -0.00181988, -0.0032884, -0.000798246, 0.0377346, 0.576527, -0.147617
1177.2552589920001083, -0.00182324, -0.00328821, -0.000814728, 0.0376274, 0.576854, -0.146342
1177.2885753490002116, -0.00181768, -0.00329091, -0.000820519, 0.0376035, 0.577329, -0.145888
1177.3218916870000612, -0.00180901, -0.00329147, -0.000825138, 0.0374948, 0.577724, -0.14533
1177.3552080490001117, -0.00178703, -0.0032939, -0.000826114, 0.0374916, 0.578052, -0.145245
1177.3885243540000829, -0.00175762, -0.00329568, -0.000828954, 0.0374408, 0.578381, -0.144959
1177.4218407160001334, -0.00174494, -0.0032985, -0.000838517, 0.0374276, 0.578904, -0.144395
1177.4551570200001152, -0.00171719, -0.00330172, -0.000842664, 0.0374396, 0.579338, -0.144179
1177.4884733540002344, -0.00168558, -0.00330608, -0.000845051, 0.0374508, 0.579896, -0.144003
1177.5217897160000575, -0.00165375, -0.00330951, -0.000852101, 0.037449, 0.580217, -0.143626
1177.5551060160000816, -0.00162031, -0.00331428, -0.000858222, 0.0374547, 0.580803, -0.14325
1177.5885723490000601, -0.00158662, -0.00331673, -0.000863841, 0.0374153, 0.581146, -0.14287
1177.6218886820001899, -0.00154675, -0.00331814, -0.000866825, 0.0373552, 0.581251, -0.142559
1177.6552050490001875, -0.00152942, -0.0033208, -0.000874741, 0.0373029, 0.581573, -0.142045
1177.6885213820000899, -0.00151049, -0.00332227, -0.000880768, 0.0372463, 0.581832, -0.141605
1177.7218376920002356, -0.00149326, -0.0033243, -0.000886024, 0.0371707, 0.582166, -0.141155
1177.7551540490001116, -0.00146951, -0.00332528, -0.00088874, 0.037089, 0.582219, -0.140834
1177.7884703490001357, -0.00145974, -0.00332456, -0.000892833, 0.037, 0.582179, -0.140482
1177.8217866820000381, -0.00144633, -0.00332414, -0.000894926, 0.0369001, 0.582215, -0.140157
1177.8551030200001151, -0.00143062, -0.00332199, -0.000899077, 0.0368096, 0.582178, -0.139815
1177.8884193820001656, -0.00141869, -0.00332053, -0.000902813, 0.0367061, 0.582295, -0.139444
1177.9217357160000574, -0.00139905, -0.00332126, -0.000903433, 0.0366799, 0.582247, -0.139384
1177.9552020160001575, -0.00137605, -0.00332216, -0.000906756, 0.036641, 0.582391, -0.139185
1177.9885183820001657, -0.00136852, -0.0033219, -0.000909113, 0.0365701, 0.582516, -0.138942
1178.0218347160000576, -0.00135331, -0.00332527, -0.000910154, 0.0365859, 0.582501, -0.138956
1178.055150987000161, -0.00134744, -0.00332889, -0.000913168, 0.0365358, 0.58282, -0.138703
1178.0884673820000899, -0.00132853, -0.00333024, -0.000913031, 0.0364391, 0.583125, -0.138431
1178.1217837160002091, -0.00129615, -0.00333204, -0.000912716, 0.0363709, 0.58344, -0.138228
1178.1551000490001115, -0.00127546, -0.00333566, -0.00091892, 0.0363096, 0.583872, -0.137875
1178.1884163820002414, -0.00123739, -0.00333797, -0.000921044, 0.0362801, 0.584143, -0.137734
1178.2217327150001438, -0.0012177, -0.00333832, -0.00092424, 0.0361702, 0.584503, -0.137365
1178.255049020000115, -0.00117977, -0.00333755, -0.00092903, 0.0360831, 0.58479, -0.137049
1178.2885153540000829, -0.00115927, -0.00333346, -0.000935341, 0.0360193, 0.584967, -0.136788
1178.3218316870002127, -0.00114153, -0.00333337, -0.000945357, 0.0360376, 0.58505, -0.136672
1178.355148606000057, -0.00112433, -0.00333485, -0.000955279, 0.0360379, 0.585204, -0.136515
1178.3884643820001656, -0.00110899, -0.00333425, -0.000963296, 0.0360025, 0.585364, -0.136311
1178.4217807150000681, -0.00109456, -0.00333471, -0.000971381, 0.0359831, 0.585514, -0.136142
1178.4550970200000393, -0.001093, -0.00333407, -0.000978205, 0.0359564, 0.585618, -0.135983
1178.4884133540001585, -0.0010865, -0.00333247, -0.000984047, 0.0359164, 0.585773, -0.135808
1178.5217296820001138, -0.00108274, -0.00333114, -0.000989064, 0.0359025, 0.585833, -0.135725
1178.5550460150002436, -0.00107896, -0.00333138, -0.00099568, 0.0358803, 0.585945, -0.135599
1178.5883623820002413, -0.00108241, -0.00333158, -0.0010012, 0.0358436, 0.5861, -0.135435
1178.6216786580000644, -0.00108878, -0.00333334, -0.00100491, 0.0358295, 0.586225, -0.135348
1178.6551450150002438, -0.00109278, -0.00333308, -0.00100709, 0.035771, 0.58641, -0.135143
1178.6884613540000828, -0.00109866, -0.0033326, -0.00100861, 0.035737, 0.586516, -0.135024
1178.7217776820000381, -0.00110098, -0.00333418, -0.00100986, 0.0356921, 0.586706, -0.134866
1178.7550940150001679, -0.00111008, -0.00333488, -0.00101249, 0.0356398, 0.586899, -0.134675
1178.7884103490000598, -0.00111777, -0.00333345, -0.00101557, 0.035591, 0.587037, -0.134496
1178.821726715000068, -0.00113267, -0.00333058, -0.00101988, 0.035498, 0.587278, -0.134169
1178.8550430200000392, -0.00114381, -0.00332881, -0.00102199, 0.0354437, 0.587414, -0.133983
1178.8883593490002113, -0.00115911, -0.00332836, -0.00102248, 0.0354279, 0.587441, -0.133932
1178.9216757150002195, -0.00116535, -0.00332664, -0.00102449, 0.0353776, 0.587578, -0.13376
1178.9549920150002436, -0.00117425, -0.00332511, -0.00102581, 0.0353236, 0.587731, -0.13358
1178.9884583530001692, -0.00118583, -0.00332193, -0.00102684, 0.0352735, 0.587833, -0.133421
1179.0217747150002197, -0.00119303, -0.00332037, -0.00103011, 0.035226, 0.587954, -0.133247
1179.0550910150002437, -0.00120289, -0.00331995, -0.00103113, 0.0351912, 0.588048, -0.133129
1179.0884073820002413, -0.00121014, -0.00332073, -0.00103535, 0.0351437, 0.588224, -0.132936
1179.1217237150001438, -0.00121939, -0.00331993, -0.00103915, 0.0351041, 0.58835, -0.132777
1179.1550400490000357, -0.00122614, -0.00332088, -0.00104312, 0.0350671, 0.588498, -0.132621
1179.1883563490000597, -0.001232, -0.00332188, -0.00104853, 0.0350331, 0.588645, -0.132456
1179.2216727150000679, -0.00124346, -0.00331995, -0.00105148, 0.0349905, 0.588761, -0.132304
1179.2549895010001819, -0.0012514, -0.00331999, -0.00105132, 0.0349643, 0.588853, -0.132225
1179.2883053820000896, -0.0012578, -0.00331922, -0.00105417, 0.0349328, 0.588957, -0.132105
1179.3216217150002194, -0.00126196, -0.00331985, -0.00105634, 0.0349043, 0.589072, -0.131996
1179.3550880490001873, -0.00126871, -0.00332077, -0.00106025, 0.0348804, 0.589184, -0.131886
1179.3884043820000898, -0.00127479, -0.00331845, -0.00106106, 0.0348261, 0.589328, -0.13171
1179.4217206870000609, -0.00127926, -0.00331748, -0.00106299, 0.0347758, 0.589497, -0.131533
1179.4550370200001908, -0.00128846, -0.00331662, -0.00106494, 0.0347336, 0.589624, -0.131382
1179.4883533820002413, -0.0012954, -0.00331538, -0.00106735, 0.0346964, 0.589722, -0.131246
1179.5216696820000379, -0.00130749, -0.00331683, -0.00106975, 0.0346765, 0.58982, -0.131155
1179.554986891000226, -0.00132061, -0.00331753, -0.00107195, 0.0346542, 0.589912, -0.131057
1179.5883023490000596, -0.00133121, -0.00331927, -0.00107386, 0.0346154, 0.590097, -0.130901
1179.6216186870001366, -0.00134961, -0.00332003, -0.00107509, 0.0345994, 0.590166, -0.130835
1179.6549359060002189, -0.00137052, -0.00332038, -0.00107634, 0.0345719, 0.590237, -0.130735
1179.6884013200001391, -0.00139035, -0.00332118, -0.00107824, 0.0345075, 0.590452, -0.130507
1179.7217176870001367, -0.00141826, -0.00332273, -0.00107892, 0.0344719, 0.590552, -0.130381
1179.7550340390000656, -0.00144871, -0.00332609, -0.0010787, 0.0344539, 0.590607, -0.130322
1179.7883503490002113, -0.00148116, -0.00332711, -0.00107922, 0.0344038, 0.590721, -0.130158
1179.8216667150002195, -0.00150702, -0.00332916, -0.00107776, 0.0344111, 0.590651, -0.1302
1179.8549830200001907, -0.00153876, -0.00332726, -0.00107645, 0.03428, 0.591, -0.12982
1179.8882993490001354, -0.00157057, -0.00332779, -0.00107547, 0.0342306, 0.591138, -0.129688
1179.9216157150001436, -0.00159587, -0.00333016, -0.00107447, 0.0342114, 0.591234, -0.129646
1179.9549320490000355, -0.00162234, -0.00332813, -0.00107173, 0.0341161, 0.591474, -0.129399
1179.9882483490000595, -0.00164531, -0.00332573, -0.00107057, 0.0340763, 0.591524, -0.129296
1180.0215647150000677, -0.00166295, -0.00332227, -0.00107035, 0.0340004, 0.591675, -0.129074
1180.0550310490000356, -0.00168068, -0.00332067, -0.00106887, 0.0339844, 0.591684, -0.129047
1180.0883473820001655, -0.0016976, -0.00331779, -0.00106671, 0.0339305, 0.591808, -0.128927
1180.1216637150000679, -0.00171529, -0.00331495, -0.00106535, 0.0339149, 0.591796, -0.128898
1180.1549800490001871, -0.00173331, -0.00331182, -0.00106479, 0.0338956, 0.591752, -0.128855
1180.1882963820000896, -0.00175083, -0.00330815, -0.00106404, 0.0338491, 0.591813, -0.128715
1180.2216126870000608, -0.00176717, -0.0033057, -0.00106376, 0.0338235, 0.591847, -0.128634
1180.2549290010001641, -0.0017837, -0.00330281, -0.00106313, 0.0337957, 0.591893, -0.128564
1180.2882453490001353, -0.00179939, -0.00330113, -0.00106172, 0.0337903, 0.591899, -0.128556
1180.3215617150001435, -0.0018132, -0.00329929, -0.00106041, 0.0337637, 0.591962, -0.128492
1180.3548780150001676, -0.00182606, -0.00329786, -0.00105975, 0.0337579, 0.591983, -0.128473
1180.3883443820002412, -0.00183938, -0.00329641, -0.00105915, 0.0337398, 0.592062, -0.128416
1180.4216607150001437, -0.00185343, -0.00329332, -0.00105979, 0.033693, 0.592185, -0.128251
1180.4549770480000461, -0.00186671, -0.00329268, -0.00106074, 0.0336963, 0.592178, -0.128235
1180.4882933200001389, -0.0018777, -0.00328986, -0.00106157, 0.0336435, 0.592313, -0.12805
1180.5216097150000678, -0.00189172, -0.00328708, -0.0010624, 0.0336175, 0.592306, -0.12796
1180.5549260480001976, -0.00190698, -0.00328519, -0.00106222, 0.0335848, 0.59236, -0.127857
1180.5882423820000895, -0.00192076, -0.0032842, -0.00106187, 0.0335594, 0.592394, -0.127772
1180.6215587150002193, -0.0019348, -0.00328331, -0.00106295, 0.0335416, 0.592392, -0.127686
1180.6548750480001218, -0.00194869, -0.00328337, -0.0010627, 0.0335207, 0.592493, -0.127598
1180.688191382000241, -0.00196071, -0.00328194, -0.00106134, 0.0334898, 0.592506, -0.127528
1180.7216577150002195, -0.00197236, -0.00328105, -0.00105944, 0.0334675, 0.592516, -0.127491
1180.7549740150002435, -0.00198325, -0.00328001, -0.00105884, 0.0334385, 0.592559, -0.127407
1180.788290348000146, -0.00199275, -0.00328086, -0.0010579, 0.0334249, 0.592594, -0.127366
1180.8216067150001436, -0.00199832, -0.00328203, -0.00105495, 0.0334356, 0.592585, -0.127458
1180.854923048000046, -0.00200307, -0.00328232, -0.00105399, 0.0335719, 0.592183, -0.127922
1180.8882393820001653, -0.00200628, -0.00327895, -0.00105249, 0.033638, 0.591938, -0.128147
1180.9215556870001365, -0.00201367, -0.00327994, -0.00104808, 0.0336177, 0.592017, -0.128202
1180.9548720150000918, -0.00200715, -0.00327694, -0.00104369, 0.0335035, 0.592368, -0.127995
1180.9881883870000365, -0.00201041, -0.00328121, -0.00104817, 0.033638, 0.591987, -0.128247
1181.0215047150002192, -0.00201186, -0.00328628, -0.00105073, 0.0339192, 0.591103, -0.128934
1181.0548209870000846, -0.00201138, -0.00328604, -0.00104966, 0.033966, 0.590898, -0.129064
1181.0882873530001689, -0.00200957, -0.00328732, -0.00104679, 0.0340011, 0.59087, -0.129178
1181.1216037150002194, -0.002011, -0.00328798, -0.00104965, 0.0342095, 0.590144, -0.129403
1181.1549200480001218, -0.00201104, -0.00328913, -0.0010504, 0.0342593, 0.590041, -0.129414
1181.1882363480001459, -0.00200993, -0.00329139, -0.00104751, 0.0343123, 0.590024, -0.129419
1181.2215527150001435, -0.00201133, -0.00329338, -0.00105065, 0.0342627, 0.590214, -0.129455
1181.2548690200001147, -0.00201234, -0.00329499, -0.00105329, 0.0341892, 0.590391, -0.129638
1181.2881853820001652, -0.00201264, -0.00329669, -0.00105135, 0.0341686, 0.590473, -0.129758
1181.3215017150000676, -0.00201305, -0.0032988, -0.0010461, 0.0339444, 0.590608, -0.13103
1181.3548180150000917, -0.00201308, -0.00329989, -0.00104797, 0.0338199, 0.59057, -0.131821
1181.3881343820000893, -0.00201214, -0.00330263, -0.00104701, 0.0339147, 0.590882, -0.131158
1181.4216006860001471, -0.00201175, -0.00330706, -0.00104334, 0.0340075, 0.591375, -0.130492
1181.4549170290001712, -0.00201069, -0.00330671, -0.00104197, 0.0340977, 0.591801, -0.129654
1181.4882333820000895, -0.0020102, -0.00331049, -0.00104909, 0.03432, 0.593506, -0.127097
1181.5215497150002193, -0.00201063, -0.00331302, -0.00105479, 0.0343774, 0.594052, -0.126334
1181.5548660150002434, -0.00201074, -0.0033127, -0.00105993, 0.0343152, 0.593571, -0.126911
1181.5881823530000929, -0.00201019, -0.00331074, -0.00106462, 0.0344289, 0.594626, -0.125294
1181.6214987150001434, -0.00200936, -0.00330879, -0.00106652, 0.0345187, 0.595558, -0.123979
1181.6548150580001675, -0.00200894, -0.00330752, -0.00106776, 0.0346428, 0.596942, -0.122187
1181.6881313820001651, -0.00200752, -0.0033038, -0.00107066, 0.034733, 0.597827, -0.120764
1181.7214477150000675, -0.00200751, -0.00330523, -0.00107181, 0.0345529, 0.595721, -0.123373
1181.7547640480001974, -0.00200731, -0.003306, -0.00107336, 0.034486, 0.594942, -0.12431
1181.7882303480000701, -0.00200571, -0.0033017, -0.00107744, 0.0346406, 0.596473, -0.121636
1181.8215467150000677, -0.00200619, -0.00329942, -0.00107653, 0.034555, 0.595436, -0.122982
1181.8548630150000918, -0.00200834, -0.00329622, -0.00107197, 0.034626, 0.595939, -0.121951
1181.8881795100001, -0.00200893, -0.00329604, -0.00107448, 0.0347234, 0.596808, -0.120025
1181.9214956820001134, -0.00200673, -0.00329946, -0.00108064, 0.0346844, 0.596663, -0.120121
1181.9548120480001216, -0.00200756, -0.0033021, -0.00108113, 0.0347265, 0.59719, -0.119524
1181.9881283820002409, -0.00200827, -0.00330419, -0.00108239, 0.0348091, 0.597851, -0.118166
1182.0214447150001433, -0.00200631, -0.00329979, -0.00108621, 0.0349984, 0.598135, -0.114189
1182.0547610480000458, -0.00200656, -0.00329908, -0.00108637, 0.0351237, 0.598536, -0.112296
1182.0880773530002443, -0.00200738, -0.0033006, -0.00108526, 0.0353099, 0.599477, -0.110232
1182.1215437150001435, -0.00200736, -0.00329823, -0.00108526, 0.0353512, 0.599165, -0.109531
1182.1548600150001676, -0.00200486, -0.00329721, -0.0010908, 0.03523, 0.598483, -0.109656
1182.18817634800007, -0.00200397, -0.00329808, -0.00109284, 0.0350624, 0.598339, -0.111123
1182.2214927150000676, -0.00200441, -0.00330158, -0.00109309, 0.0349673, 0.599084, -0.112419
1182.2548090150000917, -0.00200117, -0.00330572, -0.00110384, 0.0348523, 0.599657, -0.111475
1182.2881253480002215, -0.00200121, -0.00330336, -0.00110502, 0.0350554, 0.598526, -0.10895
1182.3214416820001134, -0.00200191, -0.00329931, -0.00110189, 0.0351441, 0.597253, -0.108454
1182.3547580200001903, -0.00200051, -0.0032995, -0.00110679, 0.0352103, 0.596854, -0.106579
1182.3880743530000927, -0.00200035, -0.00330078, -0.00110792, 0.0354481, 0.596272, -0.104728
1182.4213906820000375, -0.00199974, -0.00329947, -0.00110848, 0.035529, 0.595385, -0.103913
1182.4547070480000457, -0.0020003, -0.00329957, -0.0011067, 0.0356401, 0.595094, -0.103815
1182.488173382000241, -0.00200074, -0.0033019, -0.00110746, 0.0358413, 0.595069, -0.102789
1182.5214896820000376, -0.00199706, -0.00330677, -0.00112037, 0.035956, 0.595655, -0.0987657
1182.5548060200001146, -0.00199717, -0.00330372, -0.00111902, 0.036059, 0.593711, -0.0984598
1182.5881223820001651, -0.00199908, -0.00330177, -0.00111478, 0.0362855, 0.591749, -0.0986618
1182.6214387150000675, -0.00200061, -0.00330434, -0.0011128, 0.0365283, 0.592002, -0.0983458
1182.6547550480001973, -0.00200028, -0.0033, -0.00111259, 0.0366337, 0.589, -0.0972872
1182.6880713820000892, -0.00199673, -0.00329676, -0.00112016, 0.0365329, 0.586936, -0.0943465
1182.7213876810001238, -0.00199106, -0.00329603, -0.00113284, 0.0364436, 0.585794, -0.08941
1182.7547040200001902, -0.00198788, -0.00328768, -0.00113596, 0.0362467, 0.581329, -0.0877955
1182.7880203810002513, -0.00198705, -0.00327987, -0.001135, 0.0361768, 0.576564, -0.0868533
1182.821486681000124, -0.00198543, -0.0032698, -0.001135, 0.0360432, 0.569799, -0.0847656
1182.8548030480001216, -0.00198475, -0.00326335, -0.00113387, 0.0359495, 0.565445, -0.0839742
1182.8881193480001457, -0.00198225, -0.00325498, -0.00113542, 0.0357426, 0.55971, -0.0817262
1182.9214357150001433, -0.0019779, -0.00325093, -0.0011415, 0.0355386, 0.557194, -0.0784529
1182.9547520150001674, -0.00197397, -0.00324766, -0.00114741, 0.0353354, 0.555284, -0.0758428
1182.9880683530002443, -0.00197214, -0.00324372, -0.00114951, 0.035162, 0.552596, -0.0746659
1183.021384653000041, -0.00197146, -0.00324708, -0.00115279, 0.0352098, 0.555099, -0.0737405
1183.0547010480001973, -0.00196969, -0.00324704, -0.00115637, 0.035159, 0.554501, -0.0713445
1183.0880173530001684, -0.00196818, -0.00324345, -0.00115877, 0.0349669, 0.55145, -0.0695857
1183.1213336530001925, -0.00196772, -0.00324177, -0.00116008, 0.0348628, 0.5502, -0.068902
1183.1546500480001214, -0.00196797, -0.00323863, -0.00116092, 0.0347303, 0.546393, -0.0664764
1183.1881163530001686, -0.00196801, -0.00323652, -0.00116209, 0.0346165, 0.543303, -0.0639007
1183.2214327150002191, -0.00196784, -0.00323416, -0.00116264, 0.0344922, 0.540775, -0.0628107
1183.2547490150002432, -0.00196695, -0.00323178, -0.00116489, 0.034341, 0.537442, -0.05956
1183.2880653810002514, -0.00196669, -0.00322982, -0.00116651, 0.0342006, 0.534402, -0.0572026
1183.3213816860002225, -0.00196716, -0.00322937, -0.00116674, 0.0341702, 0.533009, -0.0562445
1183.3546980480000457, -0.00196704, -0.00322842, -0.00116741, 0.0341395, 0.530959, -0.0538833
1183.3880143530002442, -0.00196692, -0.00322431, -0.00116897, 0.0338588, 0.524564, -0.0501427
1183.4213307190002524, -0.00196666, -0.00322233, -0.00117028, 0.0337064, 0.521512, -0.048128
1183.4546469910001179, -0.00196698, -0.00321938, -0.00117048, 0.0335166, 0.516712, -0.0461571
1183.4879633480002212, -0.00196698, -0.00322222, -0.00117129, 0.0337397, 0.519377, -0.0446415
1183.5214297150000675, -0.00196549, -0.0032229, -0.00117308, 0.0338411, 0.519436, -0.0413703
1183.5547460150000916, -0.00196515, -0.00321899, -0.00117428, 0.0336079, 0.511363, -0.0369292
1183.5880623480002214, -0.00196461, -0.00321874, -0.00117588, 0.0336284, 0.509286, -0.033409
1183.621378686000071, -0.00196411, -0.00321787, -0.00117575, 0.0336772, 0.507652, -0.0318468
1183.6546950430001743, -0.00196301, -0.00321944, -0.00117803, 0.0338349, 0.508453, -0.0284595
1183.6880113810002513, -0.00196299, -0.00322041, -0.0011778, 0.0340154, 0.509451, -0.0278525
1183.7213277150001431, -0.00196328, -0.00322003, -0.00117667, 0.0341209, 0.509041, -0.0279087
1183.7546440190001249, -0.00196133, -0.00321999, -0.00118009, 0.0342881, 0.507972, -0.0215705
1183.7879603530002441, -0.00196103, -0.00321752, -0.00117925, 0.0343166, 0.50435, -0.0195393
1183.8212767240001995, -0.00195747, -0.00321642, -0.00118436, 0.0342947, 0.503043, -0.0123352
1183.8547430150001674, -0.00195458, -0.00321489, -0.00118825, 0.0342678, 0.500165, -0.00645362
1183.8880593670000962, -0.0019533, -0.00321333, -0.00118885, 0.0342316, 0.497547, -0.00467119
1183.9213757100001203, -0.0019524, -0.00321421, -0.00119034, 0.0343088, 0.499099, -0.00301223
1183.9546920190000492, -0.00195021, -0.0032156, -0.00119424, 0.0342028, 0.501225, -0.000586789
1183.9880083530001684, -0.00195033, -0.00321403, -0.00119288, 0.0339601, 0.497937, -0.0028388
1184.0213247150002189, -0.0019461, -0.0032153, -0.00119853, 0.0338375, 0.499208, 0.00160814
1184.054641015000243, -0.00194545, -0.00321566, -0.00119953, 0.0337922, 0.499819, 0.00188923
1184.0879573480001454, -0.00194484, -0.00321447, -0.00119986, 0.0336271, 0.497428, 0.00173127
1184.1212736530001166, -0.0019262, -0.00321228, -0.00122322, 0.0322678, 0.486831, 0.0188756
1184.1545900480000455, -0.00192406, -0.00321124, -0.00122591, 0.0319809, 0.483765, 0.0197347
1184.1879063810001753, -0.00191963, -0.00320937, -0.00123117, 0.0315757, 0.478096, 0.0235907
1184.2213727150001432, -0.00191919, -0.00320875, -0.00123157, 0.0315205, 0.476419, 0.0242076
1184.2546890150001673, -0.00191635, -0.00321193, -0.00123749, 0.0317081, 0.481246, 0.0301474
1184.2880053810001755, -0.00191343, -0.00321424, -0.00124357, 0.0317846, 0.484058, 0.0358601
1184.3213216810001995, -0.00190706, -0.00321333, -0.00125207, 0.0314553, 0.479151, 0.043411
1184.3546379910001178, -0.00190535, -0.00321275, -0.00125476, 0.0313457, 0.476822, 0.0458032
1184.3879543530001683, -0.00190297, -0.00321119, -0.00125799, 0.0310857, 0.472019, 0.0479997
1184.4212706860000708, -0.00190089, -0.00320923, -0.00126034, 0.0307951, 0.466494, 0.0496521
1184.4545870190002006, -0.00189952, -0.00320773, -0.00126208, 0.0306727, 0.462465, 0.0513923
1184.4879033530000925, -0.00189803, -0.00320868, -0.00126507, 0.0307649, 0.463575, 0.0545609
1184.521219715000143, -0.00189885, -0.00320666, -0.00126359, 0.0308191, 0.460441, 0.0546304
1184.5546860150002431, -0.00189736, -0.00320814, -0.00126696, 0.0310987, 0.462608, 0.05907
1184.5880023190002248, -0.00189542, -0.00320462, -0.0012687, 0.0307733, 0.454055, 0.0603685
1184.6213187150001431, -0.00189666, -0.00320233, -0.00126684, 0.0306941, 0.449634, 0.0592909
1184.6546350480000456, -0.00189424, -0.00320216, -0.0012725, 0.0302857, 0.443685, 0.061984
1184.6879513810001754, -0.00189398, -0.00319978, -0.00127388, 0.0301316, 0.437085, 0.0628411
1184.7212676810001994, -0.00189231, -0.00319298, -0.00127534, 0.0296321, 0.420437, 0.063568
1184.7545840150000913, -0.00189023, -0.00318878, -0.0012774, 0.0292056, 0.409561, 0.0644617
1184.7879003810000995, -0.00188959, -0.00318743, -0.00127813, 0.0290902, 0.405995, 0.0648877
1184.8212166760001764, -0.00188953, -0.0031853, -0.00127848, 0.0288967, 0.400191, 0.0645818
1184.8545330150002428, -0.00188845, -0.00318314, -0.00127979, 0.0288093, 0.39406, 0.0657919
1184.8878493530000924, -0.00188869, -0.00318202, -0.00127951, 0.0287729, 0.39118, 0.0657391
1184.9213156810001237, -0.00188879, -0.00318027, -0.00127921, 0.028656, 0.386771, 0.0654465
1184.9546320190002007, -0.00188983, -0.00317892, -0.00127751, 0.0288172, 0.383648, 0.0657048
1184.9879483810002512, -0.00188752, -0.00317866, -0.00128112, 0.0285207, 0.381197, 0.0669526
1185.0212647140001536, -0.00188465, -0.00317703, -0.00128493, 0.0280378, 0.375695, 0.0673732
1185.0545810480000455, -0.00188378, -0.00317619, -0.00128595, 0.0278715, 0.373288, 0.0674509
1185.0878973480000695, -0.00188294, -0.0031769, -0.00128754, 0.0278023, 0.375146, 0.0677553
1185.1212137140000777, -0.0018817, -0.00317755, -0.00128972, 0.0277406, 0.376734, 0.0688654
1185.154530048000197, -0.00188316, -0.00317368, -0.0012868, 0.0274477, 0.368451, 0.06626
1185.1878463530001682, -0.00188224, -0.00317265, -0.00128843, 0.0271553, 0.36594, 0.0659835
1185.2211627140002292, -0.00188075, -0.00317253, -0.00129062, 0.0269597, 0.365659, 0.0664779
1185.2546290190000491, -0.00188241, -0.00316933, -0.00128832, 0.02666, 0.356507, 0.0646984
1185.2879453480002212, -0.00188254, -0.00316954, -0.00128833, 0.0267287, 0.355673, 0.0654811
1185.3212617140002294, -0.0018823, -0.0031691, -0.00129042, 0.0264489, 0.352025, 0.0659436
1185.3545780480001213, -0.0018821, -0.00316904, -0.00129075, 0.0264436, 0.34924, 0.0674926
1185.3878943530000925, -0.00188256, -0.00316939, -0.00128966, 0.0266504, 0.350628, 0.0676645
1185.4212107140001535, -0.00188245, -0.00316969, -0.0012897, 0.0267157, 0.351129, 0.0681536
1185.4545270140001776, -0.00188078, -0.00317185, -0.00129277, 0.0269606, 0.356219, 0.0712421
1185.4878433810001752, -0.00188015, -0.003173, -0.00129443, 0.027111, 0.358407, 0.0733391
1185.5211596530000406, -0.00187903, -0.00317443, -0.00129709, 0.0272323, 0.360974, 0.0759578
1185.5544760140001017, -0.00187877, -0.00317486, -0.00129759, 0.0273242, 0.362285, 0.0765195
1185.5877923810000993, -0.00187776, -0.0031756, -0.00129931, 0.0275007, 0.364711, 0.0780018
1185.6212586860001466, -0.0018762, -0.003177, -0.00130316, 0.02761, 0.366952, 0.0814704
1185.6545755860001918, -0.001876, -0.00317715, -0.00130367, 0.0276828, 0.367233, 0.08209
1185.6878913810000995, -0.00187578, -0.00317734, -0.00130436, 0.0277884, 0.368075, 0.0826151
1185.7212076810001236, -0.00187563, -0.00317734, -0.00130454, 0.0278778, 0.368538, 0.0827404
1185.7545240190002005, -0.00187563, -0.00317734, -0.00130454, 0.0278778, 0.368538, 0.0827404
1185.787840381000251, -0.00187469, -0.00317769, -0.00130547, 0.0281404, 0.372591, 0.0830977
1185.8211567140001534, -0.00187345, -0.00317801, -0.00130776, 0.0283283, 0.373991, 0.0848007
1185.8544729910001934, -0.00187305, -0.00317831, -0.00130851, 0.0281839, 0.372698, 0.0857332
1185.8877893520002544, -0.00187195, -0.00317862, -0.00131034, 0.0283836, 0.375551, 0.0866945
1185.9211057140000776, -0.00187002, -0.0031778, -0.00131252, 0.0290515, 0.380004, 0.0868091
1185.9545719910001935, -0.00187, -0.00317709, -0.00131188, 0.0292472, 0.380035, 0.0857304
1185.9878883520002546, -0.00187001, -0.00317647, -0.00131111, 0.0295522, 0.382728, 0.0841836
1186.0212047140000777, -0.0018697, -0.00317584, -0.00131069, 0.0298707, 0.385226, 0.0829679
1186.054521338000086, -0.00186947, -0.00317524, -0.00131005, 0.0302399, 0.388939, 0.0816114
1186.0878373520001787, -0.00186919, -0.00317501, -0.00131074, 0.0304008, 0.38983, 0.0818144
1186.1211537140002292, -0.001869, -0.00317444, -0.0013114, 0.0305916, 0.389221, 0.0819699
1186.1544700620002004, -0.00186919, -0.00317395, -0.0013105, 0.0307371, 0.389802, 0.0810305
1186.1877863810002509, -0.00186584, -0.00317688, -0.00131818, 0.0304358, 0.394276, 0.0885805
1186.2211026860002221, -0.00186532, -0.00317722, -0.00131938, 0.0304401, 0.395745, 0.089785
1186.2544190190001245, -0.00186483, -0.0031778, -0.00132035, 0.0303703, 0.396468, 0.0907732
1186.2877353520002544, -0.00186398, -0.0031785, -0.00132214, 0.0302506, 0.396462, 0.0920303
1186.3212017140001535, -0.00186369, -0.00317892, -0.00132259, 0.0301729, 0.39687, 0.0922226
1186.3545180480000454, -0.00186099, -0.00318059, -0.00132783, 0.0300752, 0.401451, 0.0964875
1186.3878343810001752, -0.00186098, -0.00318083, -0.00132791, 0.0299808, 0.400647, 0.0963405
1186.4211507140000776, -0.00186026, -0.00318177, -0.00132984, 0.02973, 0.397974, 0.0971666
1186.4544670190000488, -0.0018592, -0.00318279, -0.00133257, 0.0294743, 0.395028, 0.0986184
1186.4877833810000993, -0.00185915, -0.0031828, -0.00133287, 0.0295125, 0.395142, 0.0992062
1186.5210997140002291, -0.00185885, -0.00318348, -0.00133387, 0.029354, 0.394356, 0.099368
1186.554416048000121, -0.0018579, -0.00318532, -0.00133779, 0.0289702, 0.390035, 0.101525
1186.5877323810002508, -0.00185674, -0.00318609, -0.00134111, 0.0290311, 0.390398, 0.105343
1186.621048686000222, -0.0018564, -0.00318602, -0.00134178, 0.0291268, 0.38942, 0.107158
1186.6545150140002534, -0.00185633, -0.00318538, -0.00134145, 0.0292914, 0.388131, 0.108198
1186.6878313520001029, -0.0018553, -0.00318592, -0.00134385, 0.0293592, 0.390145, 0.110887
1186.7211477140001534, -0.00185393, -0.00318679, -0.00134716, 0.0293901, 0.392384, 0.114301
1186.7544640190001246, -0.00185174, -0.0031877, -0.00135129, 0.0295003, 0.397965, 0.118639
1186.7877803520002544, -0.00184981, -0.00318919, -0.00135649, 0.0295102, 0.400302, 0.123998
1186.8210966860001463, -0.00184847, -0.00319016, -0.00135981, 0.0295074, 0.401563, 0.127302
1186.8544130140001016, -0.00184804, -0.00318992, -0.00136097, 0.0296216, 0.403274, 0.128481
1186.8877293810000992, -0.00184666, -0.00319019, -0.00136377, 0.0297408, 0.404533, 0.131358
1186.9210456860000704, -0.00184503, -0.00318989, -0.00136632, 0.0299775, 0.40693, 0.134274
1186.9543620480001209, -0.00184459, -0.00318884, -0.00136733, 0.0302261, 0.408463, 0.134972
1186.987828348000221, -0.00184143, -0.00318915, -0.00137366, 0.0305024, 0.410374, 0.140098
1187.0211447140002292, -0.00183985, -0.00318985, -0.00137762, 0.030551, 0.41088, 0.143334
1187.0544610280001052, -0.0018397, -0.00318881, -0.00137797, 0.0307268, 0.410409, 0.143008
1187.0877773810002509, -0.00183825, -0.00318885, -0.00138089, 0.0308886, 0.412351, 0.14519
1187.1210937140001533, -0.00183668, -0.00318868, -0.00138395, 0.0311703, 0.417307, 0.148179
1187.1544100480000452, -0.00183509, -0.00318823, -0.00138554, 0.0313809, 0.420318, 0.149742
1187.1877263470000798, -0.00183602, -0.00318837, -0.00138617, 0.0313128, 0.417481, 0.149681
1187.2210427140000775, -0.00183549, -0.00318872, -0.00138766, 0.0313739, 0.419294, 0.151104
1187.2543590470002073, -0.00183503, -0.00318745, -0.00138787, 0.0316256, 0.420376, 0.151006
1187.2876753810000992, -0.00183376, -0.00318654, -0.00138898, 0.0319439, 0.423161, 0.151434
1187.3209916810001232, -0.00183316, -0.00318696, -0.00138938, 0.03201, 0.426727, 0.15245
1187.3544580470002074, -0.00183316, -0.00318696, -0.00138938, 0.03201, 0.426727, 0.15245
1187.3877743470002315, -0.0018315, -0.00318868, -0.00139267, 0.0320077, 0.432093, 0.156106
1187.4210906860000705, -0.00182998, -0.00319016, -0.00139527, 0.0319748, 0.437705, 0.159443
1187.4544070470001316, -0.00182986, -0.00319114, -0.00139604, 0.0318576, 0.438907, 0.160402
1187.4877233810002508, -0.00182914, -0.00319238, -0.0013974, 0.0316537, 0.439756, 0.161917
1187.5210397140001533, -0.00182791, -0.00319341, -0.00139848, 0.0315327, 0.443579, 0.163821
1187.5543560470000557, -0.00182543, -0.00319484, -0.0014006, 0.0314194, 0.450667, 0.167103
1187.5876723810001749, -0.00182506, -0.00319577, -0.00140275, 0.0312953, 0.450694, 0.168693
1187.6209887140000774, -0.00182515, -0.00319565, -0.00140198, 0.0312856, 0.451486, 0.168144
1187.6543050470002072, -0.00182505, -0.00319581, -0.00140189, 0.0312099, 0.451918, 0.168066
1187.6877713810001751, -0.00182541, -0.00319594, -0.00140197, 0.0310539, 0.451169, 0.168074
1187.7210876860001463, -0.00182486, -0.0031961, -0.00140335, 0.0310837, 0.452192, 0.169578
1187.7544040810000752, -0.00182391, -0.00319624, -0.00140464, 0.0311056, 0.45299, 0.170677
1187.7877203810000992, -0.00182314, -0.00319621, -0.00140559, 0.0310307, 0.454325, 0.171511
1187.821036714000229, -0.00182321, -0.00319553, -0.00140555, 0.0311467, 0.455221, 0.171864
1187.8543530190002002, -0.00182196, -0.00319532, -0.00140581, 0.0311395, 0.457954, 0.172101
1187.8876693810002507, -0.00182038, -0.00319466, -0.00140581, 0.0311571, 0.45932, 0.172573
1187.9209856850002325, -0.0018199, -0.00319421, -0.00140625, 0.0312077, 0.459654, 0.173246
1187.9543020190001243, -0.00181955, -0.00319414, -0.00140679, 0.0312627, 0.459918, 0.173646
1187.9876195430001644, -0.00181944, -0.00319414, -0.00140751, 0.0313033, 0.45993, 0.174256
1188.0209347140000773, -0.00181802, -0.00319451, -0.00141046, 0.0314776, 0.461264, 0.176567
1188.0544016520002515, -0.00181609, -0.00319304, -0.00141081, 0.0318037, 0.462437, 0.176538
1188.0877176190001592, -0.00181583, -0.00319303, -0.00141175, 0.0318475, 0.462792, 0.177616
1188.1210337140000775, -0.00181448, -0.00319304, -0.00141309, 0.0320001, 0.464629, 0.178263
1188.1543500470002073, -0.00181322, -0.00319248, -0.00141407, 0.0322244, 0.465726, 0.178581
1188.1876663810000991, -0.00181298, -0.00319218, -0.00141437, 0.0323573, 0.465243, 0.17859
1188.220982714000229, -0.00181147, -0.00319093, -0.00141386, 0.0326307, 0.466962, 0.177339
1188.2542990470001314, -0.00181007, -0.00318993, -0.00141317, 0.0328033, 0.468671, 0.176122
1188.2876153900001555, -0.00181075, -0.00319043, -0.00141404, 0.0328443, 0.46663, 0.176547
1188.3209316810000473, -0.00180874, -0.00318974, -0.00141579, 0.0330496, 0.468475, 0.177763
1188.3542480190001243, -0.00180798, -0.00318936, -0.00141691, 0.0331484, 0.469574, 0.178709
1188.3877143520001027, -0.00180585, -0.00318849, -0.00141851, 0.0333863, 0.471858, 0.17941
1188.4210306810000475, -0.00180446, -0.00318797, -0.00141964, 0.0335515, 0.473976, 0.179771
1188.4543470140001773, -0.0018036, -0.00318772, -0.00142034, 0.0336204, 0.475527, 0.180144
1188.4876633470000797, -0.00180208, -0.00318728, -0.00142136, 0.0337624, 0.477583, 0.180801
1188.5209797140000774, -0.00179988, -0.00318628, -0.00142329, 0.0340184, 0.48003, 0.181684
1188.5542960140001014, -0.00179956, -0.00318622, -0.0014239, 0.0340886, 0.480838, 0.181945
1188.587612381000099, -0.00179818, -0.00318577, -0.00142424, 0.0342549, 0.482724, 0.18182
1188.6209286810001231, -0.00179884, -0.00318599, -0.00142453, 0.0342737, 0.484203, 0.182218
1188.6542450470001313, -0.00179899, -0.00318594, -0.00142506, 0.0342187, 0.484433, 0.183242
1188.6875613230001818, -0.00179866, -0.00318525, -0.00142486, 0.0341405, 0.486323, 0.184218
1188.7208776850002323, -0.00179773, -0.00318416, -0.00142446, 0.0341307, 0.489111, 0.184912
1188.7543440470001315, -0.00179754, -0.00318423, -0.0014246, 0.0340686, 0.489285, 0.185154
1188.7876603470001555, -0.00179754, -0.00318395, -0.00142545, 0.0338145, 0.490211, 0.186934
1188.8209766850002325, -0.00179578, -0.00318382, -0.00142548, 0.0333906, 0.491356, 0.187221
1188.8542930140001772, -0.00179582, -0.00318389, -0.00142571, 0.0332949, 0.491206, 0.187479
1188.8876093810001748, -0.00179631, -0.00318431, -0.00142615, 0.0331138, 0.490265, 0.188014
1188.9209256570002253, -0.00179689, -0.00318403, -0.00142752, 0.0330155, 0.491662, 0.18997
1188.9542420470002071, -0.00179684, -0.00318377, -0.0014283, 0.033057, 0.492901, 0.191448
1188.987558381000099, -0.00179725, -0.00318327, -0.0014287, 0.0331444, 0.494523, 0.192598
1189.0208784040000864, -0.00179735, -0.00318211, -0.00142877, 0.0331377, 0.496816, 0.193182
1189.0542047750002439, -0.00179697, -0.00318104, -0.00142957, 0.0334192, 0.499677, 0.194684
1189.0876810070001284, -0.00179707, -0.00318088, -0.00142987, 0.0334605, 0.5003, 0.195284
1189.1210071360001166, -0.0017979, -0.00318099, -0.00143054, 0.0333712, 0.500854, 0.196729
1189.154333736000126, -0.00179851, -0.00318173, -0.00143082, 0.0332185, 0.499807, 0.197354
1189.1876594920001935, -0.00179944, -0.00318267, -0.00143122, 0.0330848, 0.498462, 0.198307
1189.2209856540000601, -0.00180071, -0.00318268, -0.0014326, 0.0331332, 0.499224, 0.200505
1189.2543118160001541, -0.0018011, -0.00318244, -0.00143307, 0.0331763, 0.499917, 0.201044
1189.2876379770002586, -0.00180151, -0.00318255, -0.00143356, 0.0332255, 0.499836, 0.202149
1189.3209641060002468, -0.00180229, -0.0031819, -0.00143555, 0.0334317, 0.500734, 0.205102
1189.3542903010002192, -0.00180173, -0.00318151, -0.00143666, 0.0335296, 0.500583, 0.205449
1189.3876164190000964, -0.00180127, -0.00318043, -0.00143694, 0.033712, 0.50177, 0.205101
1189.4209425620001639, -0.00180089, -0.00317872, -0.00143684, 0.0339539, 0.503448, 0.204547
1189.4544188300001224, -0.00180091, -0.00317985, -0.00143646, 0.0337839, 0.501689, 0.205015
1189.4877449580001212, -0.00180068, -0.00317987, -0.00143775, 0.0339312, 0.500687, 0.205338
1189.5210710910000671, -0.00180035, -0.00317928, -0.0014388, 0.0341831, 0.500266, 0.205253
1189.5543973150001875, -0.00180045, -0.00317855, -0.00143978, 0.0343363, 0.501233, 0.205894
1189.5877234430001863, -0.00180055, -0.00317831, -0.00144052, 0.0344208, 0.501495, 0.205984
1189.6210495860002538, -0.00180021, -0.00317802, -0.00144077, 0.0345184, 0.501462, 0.205491
1189.6543758000002526, -0.0017999, -0.00317734, -0.00144125, 0.0346824, 0.502078, 0.205035
1189.6877019610001298, -0.00179971, -0.00317638, -0.00144112, 0.0348367, 0.503512, 0.204303
1189.7210281230002238, -0.00179939, -0.00317608, -0.00144147, 0.0349668, 0.503404, 0.203532
1189.7543542510002226, -0.00179957, -0.00317585, -0.00144216, 0.0350647, 0.503516, 0.203773
1189.7876804180000363, -0.00180025, -0.00317457, -0.00144228, 0.0352342, 0.505877, 0.203907
1189.8211565900001006, -0.00180058, -0.00317376, -0.00144206, 0.0353059, 0.50746, 0.203958
1189.8544829660002051, -0.00180121, -0.00317432, -0.00144155, 0.0350525, 0.507337, 0.205562
1189.8878089750000981, -0.00180178, -0.00317414, -0.00144129, 0.0350062, 0.508001, 0.206108
1189.9211351080000441, -0.0018033, -0.00317364, -0.00144062, 0.0348402, 0.510099, 0.207663
1189.954461270000138, -0.00180423, -0.00317362, -0.00143977, 0.034567, 0.511155, 0.209113
1189.987787432000232, -0.0018053, -0.00317323, -0.00143935, 0.0344296, 0.512592, 0.210299
1190.0211100200001511, -0.00180618, -0.00317323, -0.00143925, 0.0342264, 0.513483, 0.211449
1190.0544260180001856, -0.00180727, -0.00317337, -0.00143894, 0.0339732, 0.514348, 0.212775
1190.0877423520000775, -0.00180847, -0.00317298, -0.0014389, 0.0338287, 0.515508, 0.213906
1190.1212086570001247, -0.00180923, -0.00317355, -0.00143932, 0.033687, 0.51481, 0.214881
1190.1545250470001065, -0.00180971, -0.00317335, -0.00143901, 0.0335718, 0.514997, 0.215053
1190.1878413520000777, -0.00180982, -0.00317274, -0.0014381, 0.0334773, 0.515735, 0.214671
1190.2211581180001758, -0.00180968, -0.00317297, -0.00143814, 0.0334241, 0.515314, 0.214502
1190.2544740180001099, -0.00181008, -0.00317368, -0.00143827, 0.0333179, 0.514293, 0.214825
1190.2877903800001604, -0.00181044, -0.00317409, -0.0014399, 0.0333749, 0.514513, 0.216711
1190.3211067380002532, -0.0018108, -0.00317429, -0.00144109, 0.0334321, 0.514627, 0.218226
1190.3544230140000764, -0.00181101, -0.00317461, -0.00144279, 0.0336054, 0.514719, 0.219771
1190.3877393850000317, -0.00181149, -0.00317452, -0.0014449, 0.0338756, 0.515177, 0.222222
1190.4210556800001086, -0.00181182, -0.00317418, -0.00144596, 0.0339678, 0.515987, 0.223586
1190.4543719850000798, -0.0018116, -0.00317372, -0.00144731, 0.0341767, 0.516661, 0.224035
1190.4878383800000847, -0.00181165, -0.00317375, -0.0014493, 0.0344185, 0.517066, 0.225562
1190.521154714000204, -0.00181215, -0.0031733, -0.00145098, 0.0345748, 0.517971, 0.227735
1190.5544718180001382, -0.00181204, -0.00317277, -0.00145239, 0.0347325, 0.518916, 0.228542
1190.5877873800002362, -0.00181165, -0.00317261, -0.00145397, 0.034901, 0.519384, 0.229034
1190.6211037140001281, -0.00181169, -0.00317248, -0.00145491, 0.0350087, 0.51954, 0.229576
1190.6544200140001522, -0.00181014, -0.00317179, -0.00145811, 0.0354522, 0.520179, 0.229859
1190.6877363470000546, -0.00180954, -0.00316975, -0.00146034, 0.0357673, 0.523318, 0.231289
1190.7210526800001844, -0.00180927, -0.00316902, -0.00146094, 0.0358661, 0.524158, 0.231764
1190.754369047000182, -0.00180919, -0.00316946, -0.00146163, 0.0359048, 0.523555, 0.232005
1190.7876853800000845, -0.0018087, -0.003169, -0.00146244, 0.0360447, 0.523737, 0.232101
1190.8211517140000524, -0.00180856, -0.00316872, -0.00146302, 0.0361512, 0.523994, 0.231991
1190.8544680140000764, -0.00180851, -0.00316906, -0.00146296, 0.0361456, 0.523566, 0.231713
1190.8877843520001534, -0.00180849, -0.00316771, -0.00146322, 0.0362288, 0.525208, 0.23243
1190.9211007140002039, -0.00180858, -0.00316645, -0.00146403, 0.036385, 0.526372, 0.232892
1190.9544170470001063, -0.0018086, -0.00316603, -0.00146422, 0.0364172, 0.527033, 0.232851
1190.9877333520000775, -0.001809, -0.00316553, -0.00146463, 0.0364822, 0.527666, 0.233858
1191.0210496800000328, -0.00180896, -0.00316532, -0.00146413, 0.0364327, 0.527992, 0.23373
1191.0543660180001098, -0.0018098, -0.00316678, -0.00146349, 0.036037, 0.527563, 0.235221
1191.0876823800001603, -0.00180985, -0.00316692, -0.00146344, 0.0360033, 0.527491, 0.235312
1191.1209986800001843, -0.00180992, -0.00316681, -0.00146286, 0.0359038, 0.527498, 0.235208
1191.1543149850001555, -0.00181104, -0.00316728, -0.00146289, 0.0356686, 0.527486, 0.237464
1191.1877813800001604, -0.00181098, -0.00316797, -0.00146306, 0.0355543, 0.526701, 0.23775
1191.2210977140000523, -0.00181071, -0.00316824, -0.001463, 0.035478, 0.526343, 0.237716
1191.2544140470001821, -0.00181114, -0.00316858, -0.00146298, 0.0353579, 0.526184, 0.238285
1191.2877303470002062, -0.00181112, -0.00316889, -0.00146283, 0.035257, 0.525731, 0.238103
1191.3210467140002038, -0.00181101, -0.00316952, -0.00146306, 0.0352451, 0.524804, 0.237753
1191.3543629850000798, -0.00181169, -0.00316939, -0.00146387, 0.0354093, 0.525522, 0.238995
1191.3876793800002361, -0.0018128, -0.00316972, -0.00146473, 0.0354877, 0.525607, 0.239898
1191.4209957140001279, -0.00181334, -0.00317076, -0.00146539, 0.0354096, 0.524782, 0.241195
1191.4543120470002577, -0.00181375, -0.00317185, -0.00146644, 0.0355263, 0.523899, 0.241912
1191.4876283800001602, -0.00181426, -0.00317391, -0.00146774, 0.0355347, 0.521801, 0.242022
1191.5210947140001281, -0.00181462, -0.00317387, -0.00146781, 0.0355691, 0.521895, 0.2423
1191.5544110180001098, -0.00181462, -0.00317387, -0.00146781, 0.0355691, 0.521895, 0.2423
1191.5877273470000546, -0.00181564, -0.00317246, -0.00146726, 0.0356786, 0.523601, 0.242999
1191.6210436800001844, -0.00181576, -0.00317175, -0.00146785, 0.0359207, 0.524242, 0.243371
1191.6543600130000868, -0.00181572, -0.00317133, -0.00146817, 0.0360783, 0.524621, 0.243422
1191.6876763470002061, -0.00181598, -0.0031711, -0.00146852, 0.0361893, 0.52537, 0.243698
1191.7209927130002143, -0.00181599, -0.00317045, -0.00146923, 0.0364094, 0.526284, 0.24417
1191.7543090470001061, -0.00181585, -0.00317168, -0.00146994, 0.036371, 0.525237, 0.244922
1191.787625380000236, -0.00181606, -0.00317183, -0.00147021, 0.0364189, 0.52522, 0.245261
1191.8209416850002071, -0.00181601, -0.00317173, -0.0014703, 0.0364646, 0.525287, 0.245218
1191.8542580180001096, -0.0018171, -0.00317147, -0.00146965, 0.0364168, 0.525954, 0.245886
1191.8877243800002361, -0.0018182, -0.00317237, -0.00146951, 0.0362863, 0.525676, 0.246749
1191.9210406850002073, -0.00181841, -0.00317208, -0.00146942, 0.036364, 0.526133, 0.246208
1191.9543570130001626, -0.00181892, -0.00317193, -0.00146945, 0.0364207, 0.526413, 0.246398
1191.987673352000229, -0.00181905, -0.00317175, -0.00146933, 0.0364751, 0.526815, 0.246431
1192.0209897130000627, -0.00181888, -0.00317091, -0.0014688, 0.0365318, 0.52793, 0.246586
1192.0543060470001819, -0.00182005, -0.00317061, -0.0014684, 0.0364076, 0.527929, 0.247825
1192.0876223520001531, -0.00182023, -0.0031706, -0.0014683, 0.0363737, 0.527969, 0.247967
1192.1209386800001084, -0.00182033, -0.00317085, -0.00146842, 0.0363293, 0.527862, 0.248176
1192.1542550320000373, -0.00182117, -0.0031705, -0.00146791, 0.0361625, 0.528431, 0.248764
1192.1875713800002359, -0.00182148, -0.00316956, -0.00146723, 0.0360786, 0.529536, 0.249191
1192.2210376850000557, -0.00182082, -0.00316897, -0.00146686, 0.0360237, 0.529956, 0.24873
1192.2543540180001855, -0.00182072, -0.00316889, -0.0014669, 0.0359718, 0.529835, 0.248867
1192.2876703470001303, -0.00182102, -0.00316901, -0.00146706, 0.0358345, 0.529794, 0.24952
1192.3209866800000327, -0.00181985, -0.00317027, -0.00146842, 0.035612, 0.528252, 0.249698
1192.3543030470002577, -0.00182062, -0.00317115, -0.00146942, 0.0353944, 0.526965, 0.250543
1192.3876193800001602, -0.00182054, -0.00317133, -0.00146987, 0.0352979, 0.52677, 0.250904
1192.4209356800001842, -0.00182107, -0.00317175, -0.00147045, 0.0352542, 0.526468, 0.251743
1192.4542520130000867, -0.00182213, -0.00317293, -0.00147111, 0.0352115, 0.525369, 0.253021
1192.4875683470002059, -0.00182273, -0.00317376, -0.00147147, 0.035275, 0.525126, 0.254228
1192.5208847130002141, -0.00182376, -0.00317387, -0.00147152, 0.035228, 0.524991, 0.255284
1192.5542010130002382, -0.00182388, -0.00317432, -0.00147176, 0.0352571, 0.524637, 0.256312
1192.5876673800000844, -0.00182458, -0.00317489, -0.00147209, 0.0350795, 0.524295, 0.25789
1192.6209837130002143, -0.00182643, -0.00317538, -0.00147228, 0.0350417, 0.523988, 0.259521
1192.6543000470001061, -0.0018276, -0.00317619, -0.00147296, 0.0350829, 0.523591, 0.260271
1192.6876163470001302, -0.00182896, -0.00317724, -0.00147383, 0.0351432, 0.523049, 0.261459
1192.7209327130001384, -0.00182896, -0.00317833, -0.00147434, 0.035269, 0.522792, 0.261411
1192.7542490470002576, -0.00182889, -0.00317849, -0.0014745, 0.0353187, 0.52302, 0.261506
1192.7875653470000543, -0.00182893, -0.00317863, -0.00147489, 0.035404, 0.523456, 0.261656
1192.8208817130000625, -0.00182884, -0.00317995, -0.00147579, 0.0354963, 0.522692, 0.261562
1192.8541980470001818, -0.00182961, -0.00318114, -0.00147611, 0.0354867, 0.521811, 0.26191
1192.8875143800000842, -0.00183112, -0.00318293, -0.00147733, 0.0356104, 0.521387, 0.263023
1192.9209806510000362, -0.00183059, -0.00318449, -0.00147882, 0.0358163, 0.521165, 0.263335
1192.9542970470001819, -0.00183051, -0.00318459, -0.0014789, 0.0358284, 0.521149, 0.263286
1192.9876133800000844, -0.00183064, -0.0031863, -0.00148017, 0.0358248, 0.520293, 0.264047
1193.0209296800001084, -0.00183026, -0.00318588, -0.00147982, 0.0358976, 0.520946, 0.263687
1193.054246047000106, -0.00183053, -0.00318539, -0.00147923, 0.0359146, 0.521789, 0.263753
1193.0875623800002359, -0.0018313, -0.00318593, -0.00147969, 0.0358465, 0.521184, 0.264147
1193.1208787130001383, -0.00183197, -0.00318501, -0.00147853, 0.035783, 0.522025, 0.264599
1193.1541949850002311, -0.001834, -0.00318457, -0.00147755, 0.0356879, 0.522657, 0.265755
1193.18751138000016, -0.00183466, -0.00318439, -0.00147719, 0.0356525, 0.522836, 0.266111
1193.2208277130000624, -0.00183552, -0.0031846, -0.00147715, 0.0355261, 0.522866, 0.267058
1193.2541440130000865, -0.00183698, -0.0031854, -0.00147797, 0.0352068, 0.521912, 0.26859
1193.2876103800001601, -0.00183698, -0.0031854, -0.00147797, 0.0351977, 0.521895, 0.268601
1193.3209266800001842, -0.00183754, -0.00318558, -0.00147793, 0.0350706, 0.522098, 0.268864
1193.3542430180000338, -0.00183828, -0.00318555, -0.00147796, 0.0349172, 0.521976, 0.269452
1193.3875593800000843, -0.00183806, -0.00318567, -0.00147816, 0.0348695, 0.521673, 0.269466
1193.4208757130002141, -0.00183864, -0.00318615, -0.00147867, 0.0347998, 0.521534, 0.270131
1193.454192047000106, -0.00183923, -0.00318675, -0.00147908, 0.0348353, 0.521556, 0.270776
1193.4875083510000877, -0.00183915, -0.00318731, -0.00147953, 0.0349063, 0.521403, 0.271281
1193.5208246800000325, -0.00183948, -0.00318749, -0.00147957, 0.0348508, 0.521337, 0.271752
1193.5541410180001094, -0.00183995, -0.0031879, -0.00147994, 0.0348254, 0.521212, 0.272213
1193.5874573800001599, -0.00184072, -0.003189, -0.00148131, 0.0346987, 0.520455, 0.273156
1193.6209237130001384, -0.00183912, -0.00319011, -0.00148348, 0.0344829, 0.518761, 0.273214
1193.6542400470002576, -0.00183899, -0.00319082, -0.00148451, 0.0344507, 0.518413, 0.273744
1193.6875563800001601, -0.00183961, -0.00319146, -0.00148499, 0.0345335, 0.518377, 0.274214
1193.720872718000237, -0.00183941, -0.00319177, -0.00148532, 0.0345775, 0.518171, 0.274378
1193.7541890180000337, -0.00183936, -0.00319175, -0.00148536, 0.0346075, 0.518216, 0.274328
1193.7875053800000842, -0.00183903, -0.0031919, -0.00148554, 0.034709, 0.518177, 0.274269
1193.820821713000214, -0.00183962, -0.00319194, -0.00148553, 0.0348931, 0.518585, 0.274446
1193.8541380470001059, -0.0018389, -0.00319286, -0.00148699, 0.0350473, 0.517986, 0.274363
1193.8874543460001405, -0.00183923, -0.00319296, -0.00148699, 0.0351296, 0.518429, 0.274521
1193.9207707130001381, -0.00184121, -0.00319308, -0.00148635, 0.0352645, 0.519561, 0.27532
1193.9542370460001166, -0.0018413, -0.00319377, -0.00148754, 0.035349, 0.519478, 0.275662
1193.9875533800002358, -0.00184125, -0.00319376, -0.00148743, 0.0355036, 0.520144, 0.275812
1194.0208697130001383, -0.00184108, -0.00319371, -0.00148756, 0.0355585, 0.520104, 0.275767
1194.0541860460000407, -0.00184122, -0.00319376, -0.0014876, 0.0355766, 0.520157, 0.275846
1194.08750238000016, -0.00184502, -0.00319516, -0.00148643, 0.0353581, 0.521124, 0.277457
1194.1208186850001312, -0.00184643, -0.00319539, -0.00148545, 0.0353597, 0.521875, 0.278211
1194.1541350180000336, -0.00184827, -0.00319743, -0.00148702, 0.0352658, 0.522026, 0.2804
1194.187451375000137, -0.0018501, -0.00320003, -0.00148994, 0.0349428, 0.521464, 0.282319
1194.2207677130002139, -0.00184996, -0.00320011, -0.00149019, 0.0349089, 0.521314, 0.28233
1194.254084013000238, -0.00184996, -0.00320067, -0.00149123, 0.0348456, 0.520957, 0.282609
1194.2874003320000611, -0.00185157, -0.00320169, -0.00149166, 0.0347252, 0.521147, 0.283344
1194.3208667130002141, -0.00185219, -0.00320176, -0.00149125, 0.034642, 0.521303, 0.283387
1194.3541830460001165, -0.00185247, -0.00320216, -0.00149122, 0.0345049, 0.521254, 0.283515
1194.3875015560001884, -0.00185183, -0.00320301, -0.00149321, 0.0343685, 0.520622, 0.283833
1194.4208156800000324, -0.00185258, -0.00320321, -0.00149318, 0.0344197, 0.520787, 0.284089
1194.4541320460000406, -0.00185376, -0.00320403, -0.00149303, 0.0342952, 0.521019, 0.284464
1194.4874483800001599, -0.0018537, -0.00320471, -0.00149402, 0.0342118, 0.520796, 0.284775
1194.5207646800001839, -0.00185391, -0.00320501, -0.00149451, 0.034187, 0.520761, 0.285056
1194.5540810180000335, -0.00185455, -0.00320587, -0.00149601, 0.0341642, 0.520616, 0.285518
1194.5873973510001633, -0.0018561, -0.00320632, -0.0014959, 0.0342312, 0.521066, 0.286025
1194.6207136800001081, -0.00185721, -0.00320662, -0.00149549, 0.0342903, 0.521399, 0.286327
1194.654179989000113, -0.00185926, -0.00320756, -0.00149506, 0.0344227, 0.522065, 0.287028
1194.6874963510001635, -0.0018592, -0.00320819, -0.00149674, 0.034403, 0.521689, 0.28736
1194.720812713000214, -0.00185856, -0.00320765, -0.0014984, 0.0344113, 0.521088, 0.287079
1194.7541290460001164, -0.00185832, -0.00320782, -0.00149934, 0.0344378, 0.520879, 0.287258
1194.7874453510000876, -0.00185831, -0.00320862, -0.00150116, 0.0344777, 0.520632, 0.287795
1194.8207616840002174, -0.00185847, -0.00320944, -0.00150208, 0.0346658, 0.52097, 0.288233
1194.8540780180001093, -0.0018583, -0.00321001, -0.00150349, 0.0346871, 0.520779, 0.28855
1194.8873943270000382, -0.0018565, -0.00320946, -0.00150614, 0.034712, 0.51988, 0.288426
1194.9207107130000622, -0.00185474, -0.00320786, -0.00150765, 0.0349546, 0.519519, 0.288005
1194.9540270130000863, -0.00185498, -0.00320821, -0.00150776, 0.0349989, 0.519697, 0.288133
1194.9873433510001632, -0.00185421, -0.00320743, -0.00150887, 0.0351299, 0.519445, 0.287867
1195.020809651000036, -0.00185454, -0.00320721, -0.00150883, 0.0352306, 0.519599, 0.287797
1195.0541260460001922, -0.00185509, -0.00320648, -0.00150766, 0.0354464, 0.520083, 0.287443
1195.0874423840000418, -0.00185498, -0.00320373, -0.00150604, 0.0357237, 0.520391, 0.286394
1195.1207587320002403, -0.00185734, -0.00320306, -0.00150442, 0.0360172, 0.521319, 0.28618
1195.154075013000238, -0.00185961, -0.00320639, -0.00150475, 0.035812, 0.521868, 0.2875
1195.1873913510000875, -0.00185981, -0.00320661, -0.00150474, 0.0357462, 0.521757, 0.287569
1195.220707713000138, -0.00186066, -0.00320715, -0.00150571, 0.0356926, 0.521588, 0.287793
1195.2540240460000405, -0.00186247, -0.00320932, -0.00150659, 0.0357732, 0.522234, 0.288668
1195.2873403800001597, -0.00186261, -0.00321, -0.00150582, 0.0356572, 0.522559, 0.288834
1195.3206574130001627, -0.0018625, -0.00320982, -0.00150561, 0.0354964, 0.522528, 0.288866
1195.3541229890001887, -0.00186376, -0.00321239, -0.00150687, 0.0353982, 0.522919, 0.289669
1195.3874393460000647, -0.00186436, -0.00321364, -0.00150772, 0.0353226, 0.52309, 0.290106
1195.4207556840001416, -0.00186716, -0.00321635, -0.00150864, 0.0353548, 0.52401, 0.291052
1195.4540720460001921, -0.00187132, -0.00322274, -0.0015127, 0.0352628, 0.525597, 0.293251
1195.4873883460002162, -0.00187344, -0.00322556, -0.00151493, 0.0352639, 0.526426, 0.294433
1195.5207046510001874, -0.00187579, -0.00322821, -0.00151693, 0.0353694, 0.527511, 0.295606
1195.5540210130002379, -0.00187653, -0.00322979, -0.00151807, 0.0353124, 0.527922, 0.296066
1195.5873373460001403, -0.00187663, -0.00322983, -0.00151812, 0.0353223, 0.5279, 0.296063
1195.6206536840002173, -0.0018771, -0.00323043, -0.00151913, 0.0353644, 0.527905, 0.296319
1195.6539700460000404, -0.00187732, -0.003231, -0.00152017, 0.0354159, 0.527815, 0.29655
1195.6872863510002389, -0.00187653, -0.00323216, -0.0015218, 0.0354828, 0.528051, 0.296953
1195.7207526510001117, -0.00187651, -0.00323125, -0.00152054, 0.0353996, 0.528124, 0.29664
1195.7540690130001622, -0.00187699, -0.0032315, -0.00152067, 0.035361, 0.52816, 0.296637
1195.7873853800001598, -0.00187704, -0.00323089, -0.00152037, 0.0352978, 0.527964, 0.29659
1195.820702294000057, -0.00187753, -0.0032297, -0.0015194, 0.0352356, 0.527484, 0.296336
1195.854018046000192, -0.00187754, -0.00323058, -0.00152137, 0.0353195, 0.527505, 0.296887
1195.8873343800000839, -0.00187763, -0.00323067, -0.0015215, 0.035355, 0.527474, 0.29681
1195.9206506560001344, -0.00187745, -0.0032313, -0.0015223, 0.0354192, 0.527581, 0.296938
1195.9539670460001162, -0.00187647, -0.00323296, -0.00152431, 0.0356079, 0.528025, 0.297149
1195.9872833800002354, -0.0018763, -0.00323334, -0.00152485, 0.0356662, 0.528101, 0.297115
1196.0205996800000321, -0.00187708, -0.00323391, -0.00152682, 0.03575, 0.527849, 0.297714
1196.0540660130002379, -0.00187755, -0.00323374, -0.00152674, 0.0357621, 0.52757, 0.297726
1196.0873823510000875, -0.00187749, -0.00323396, -0.00152711, 0.03582, 0.527539, 0.297589
1196.120698713000138, -0.00187805, -0.00323397, -0.00152795, 0.0358857, 0.527152, 0.297795
1196.1540150130001621, -0.00187836, -0.00323424, -0.0015284, 0.0359535, 0.527232, 0.297681
1196.1873313790001703, -0.00187881, -0.00323483, -0.00152841, 0.0361115, 0.527765, 0.296913
1196.2206477130000621, -0.00187981, -0.00323448, -0.00152799, 0.036312, 0.527834, 0.296083
1196.2539640180000333, -0.00188315, -0.00323597, -0.00152791, 0.0363952, 0.528754, 0.295609
1196.2872807460000786, -0.00188199, -0.00323682, -0.00152927, 0.0364983, 0.528937, 0.295689
1196.3205975460000445, -0.00188061, -0.00323768, -0.00153071, 0.0366523, 0.529352, 0.295579
1196.3539130180001848, -0.00188172, -0.00323667, -0.00152924, 0.0365376, 0.529072, 0.295531
1196.3872293460001401, -0.00188272, -0.00323623, -0.00152879, 0.0364728, 0.528817, 0.2956
1196.4206959750001715, -0.00188353, -0.00323643, -0.00152868, 0.0362404, 0.528765, 0.295997
1196.4540120460001162, -0.00188451, -0.00323586, -0.00152825, 0.0361499, 0.528444, 0.296022
1196.4873283790002461, -0.00188433, -0.00323624, -0.00152836, 0.036154, 0.529047, 0.296083
1196.5206468890000906, -0.0018828, -0.00323565, -0.00153078, 0.0360539, 0.529133, 0.297324
1196.553961013000162, -0.001882, -0.00323438, -0.00153167, 0.0361051, 0.528873, 0.298035
1196.5872773790001702, -0.00188179, -0.00323497, -0.00153207, 0.0360071, 0.528843, 0.298112
1196.6205944840000939, -0.0018816, -0.00323479, -0.00153198, 0.0360165, 0.528746, 0.298174
1196.6539100460001919, -0.00188302, -0.00323489, -0.00153275, 0.0362163, 0.529827, 0.2983
1196.687226351000163, -0.00188423, -0.00323511, -0.00153339, 0.0363214, 0.530539, 0.298388
1196.7205427130002136, -0.00188517, -0.00323505, -0.00153286, 0.0362863, 0.530187, 0.298297
1196.7540090790000704, -0.00188717, -0.00323536, -0.00153366, 0.0362338, 0.530536, 0.298405
1196.7873253790000945, -0.00188835, -0.00323597, -0.00153364, 0.0362988, 0.530463, 0.298621
1196.8206416790001185, -0.00188947, -0.00323587, -0.00153392, 0.036266, 0.530617, 0.298557
1196.8539580460001162, -0.00188992, -0.00323589, -0.0015342, 0.036282, 0.53088, 0.298617
1196.8872743510000873, -0.00189037, -0.00323579, -0.00153505, 0.0363685, 0.531135, 0.298686
1196.9205907130001378, -0.0018907, -0.00323579, -0.00153534, 0.0364925, 0.53127, 0.29892
1196.9539070460000403, -0.00189111, -0.00323575, -0.0015356, 0.0364917, 0.531251, 0.299102
1196.9872233790001701, -0.00189146, -0.00323545, -0.00153652, 0.0364445, 0.531628, 0.29944
1197.020539713000062, -0.00189211, -0.00323515, -0.00153573, 0.0365312, 0.531045, 0.299672
1197.0538560460001918, -0.00189256, -0.00323498, -0.00153488, 0.0365901, 0.530638, 0.299877
1197.0873223790001703, -0.00189326, -0.00323457, -0.00153462, 0.0366739, 0.530555, 0.300364
1197.1206386510000357, -0.00189311, -0.0032344, -0.00153519, 0.0367452, 0.530842, 0.300394
1197.1539550170000439, -0.00189299, -0.00323418, -0.00153617, 0.0368715, 0.531383, 0.300123
1197.1872713510001631, -0.00189349, -0.00323381, -0.00153599, 0.0370249, 0.531044, 0.300178
1197.2205877130002136, -0.00189381, -0.00323307, -0.00153573, 0.0372665, 0.530516, 0.300465
1197.2539040460001161, -0.00189524, -0.00323271, -0.00153545, 0.0373609, 0.530394, 0.3006
1197.2872203790002459, -0.00189477, -0.00323243, -0.0015366, 0.0374568, 0.53123, 0.300113
1197.3205366790000426, -0.00189482, -0.00323196, -0.0015372, 0.0375224, 0.531613, 0.300153
1197.3538530460000402, -0.00189467, -0.00323201, -0.0015369, 0.0376193, 0.530805, 0.300067
1197.38716937900017, -0.00189551, -0.00323088, -0.00153889, 0.0377378, 0.532718, 0.299809
1197.4204857130000619, -0.00189561, -0.00323054, -0.00153884, 0.037781, 0.532832, 0.299914
1197.4539520460000404, -0.00189571, -0.00323076, -0.00153861, 0.0377093, 0.532851, 0.29995
1197.4872683460000644, -0.00189638, -0.0032301, -0.00153896, 0.0376617, 0.53374, 0.300201
1197.520584713000062, -0.00189644, -0.00323021, -0.00153938, 0.0375541, 0.533758, 0.300409
1197.5539010460001919, -0.00189694, -0.00323034, -0.00153996, 0.0373293, 0.534256, 0.301187
1197.5872173460002159, -0.00189732, -0.00323034, -0.00154063, 0.0372017, 0.53488, 0.301429
1197.6205337130002135, -0.00189728, -0.00323072, -0.00154124, 0.0370515, 0.534779, 0.301684
1197.6538500130002376, -0.00189758, -0.00323123, -0.00154177, 0.0368806, 0.534984, 0.302075
1197.6871663510000872, -0.00189768, -0.00323102, -0.00154182, 0.0368864, 0.535087, 0.302137
1197.720482684000217, -0.00189794, -0.00323089, -0.00154197, 0.0368034, 0.534968, 0.302655
1197.7537990460000401, -0.00189826, -0.00323067, -0.00154214, 0.0366915, 0.534919, 0.303189
1197.7872653840001931, -0.00189735, -0.00323173, -0.00154227, 0.036481, 0.534081, 0.303658
1197.8205817130001378, -0.00189796, -0.00323166, -0.00154229, 0.0364667, 0.533935, 0.303815
1197.8538980130001619, -0.00189855, -0.00323075, -0.00154259, 0.036472, 0.534497, 0.304074
1197.8872143790001701, -0.00189863, -0.00323096, -0.00154289, 0.0363708, 0.534577, 0.304041
1197.920530713000062, -0.00189935, -0.0032315, -0.00154274, 0.0362996, 0.534174, 0.304317
1197.953847013000086, -0.00189959, -0.00323145, -0.00154266, 0.0363076, 0.534102, 0.304599
1197.9871633460002158, -0.00189996, -0.00323098, -0.00154231, 0.0363283, 0.534085, 0.305095
1198.0204797130002135, -0.00189979, -0.00323095, -0.00154205, 0.0363695, 0.533719, 0.305453
1198.0537960460001159, -0.0018999, -0.00323031, -0.00154194, 0.0364334, 0.533742, 0.305863
1198.0871123510000871, -0.00189989, -0.00322966, -0.00154231, 0.0364971, 0.533878, 0.306014
1198.1204287130001376, -0.00189994, -0.00322924, -0.00154229, 0.036526, 0.533975, 0.306133
1198.1538950170001954, -0.00189962, -0.00322946, -0.00154216, 0.036554, 0.533282, 0.306558
1198.1872113790002459, -0.00189965, -0.00322698, -0.00154244, 0.0367805, 0.533797, 0.306875
1198.2205276790000426, -0.00189937, -0.00322638, -0.00154289, 0.0368686, 0.533933, 0.306693
1198.2538440130001618, -0.0018986, -0.00322596, -0.00154394, 0.0370166, 0.533531, 0.30663
1198.28716037900017, -0.00189845, -0.00322438, -0.00154452, 0.0371711, 0.53382, 0.306778
1198.3204766790001941, -0.00189799, -0.00322344, -0.00154509, 0.037334, 0.534076, 0.305773
1198.3537929890001124, -0.00189693, -0.00322326, -0.00154589, 0.0374449, 0.533877, 0.30512
1198.3871093460002157, -0.00189538, -0.00322403, -0.00154751, 0.0375601, 0.533016, 0.304424
1198.4204257120002239, -0.00189527, -0.00322411, -0.00154764, 0.037575, 0.532945, 0.304277
1198.453742012000248, -0.00189755, -0.00322027, -0.00154664, 0.0376876, 0.534902, 0.304641
1198.4872083790000943, -0.00189896, -0.00321831, -0.00154603, 0.0376642, 0.535763, 0.306399
1198.5205246840000655, -0.00189896, -0.00321805, -0.00154576, 0.037659, 0.535912, 0.306583
1198.5538410170001953, -0.0018999, -0.00321842, -0.00154565, 0.0374807, 0.536223, 0.308212
1198.5871573790002458, -0.00190031, -0.00322174, -0.00154614, 0.0371036, 0.536046, 0.309181
1198.6204736790000425, -0.00190042, -0.00322379, -0.00154642, 0.0368549, 0.535822, 0.310445
1198.653789984000241, -0.00190037, -0.00322566, -0.00154725, 0.0366307, 0.535573, 0.311489
1198.6871063790001699, -0.00190032, -0.00322763, -0.00154826, 0.036435, 0.535301, 0.311992
1198.7204227120000724, -0.00190045, -0.00322898, -0.00154928, 0.0361625, 0.535685, 0.31342
1198.7537390120000964, -0.00190003, -0.00323001, -0.00155038, 0.0360357, 0.535067, 0.315122
1198.7870553980001205, -0.00190008, -0.00323058, -0.00155095, 0.0359816, 0.53479, 0.315496
1198.8203717120002239, -0.0019001, -0.00323058, -0.00155097, 0.0359749, 0.534843, 0.315497
1198.8538379890001124, -0.00190001, -0.00323102, -0.00155156, 0.0358965, 0.534893, 0.315921
1198.8871543460002158, -0.00190047, -0.00323168, -0.0015519, 0.0358094, 0.534921, 0.315995
1198.920470712000224, -0.0019012, -0.0032323, -0.00155198, 0.0357781, 0.534591, 0.315831
1198.9537870460001159, -0.00190239, -0.00323196, -0.00155111, 0.0357763, 0.53445, 0.315703
1198.9871033460001399, -0.00190271, -0.00323205, -0.00155099, 0.0358118, 0.534313, 0.315715
1199.0204197120001481, -0.00190273, -0.00323201, -0.00155101, 0.0358235, 0.534317, 0.315728
1199.05373604600004, -0.00190341, -0.00323026, -0.00155051, 0.0359696, 0.53453, 0.317415
1199.0870546170001489, -0.00190364, -0.00322922, -0.00155071, 0.0360979, 0.534552, 0.318316
1199.120368684000141, -0.00190402, -0.00322952, -0.00155079, 0.0361511, 0.534143, 0.318354
1199.1536850170000434, -0.00190432, -0.00322921, -0.00155094, 0.0362115, 0.534065, 0.31889
1199.18715137900017, -0.00190437, -0.0032289, -0.00155114, 0.0362594, 0.534072, 0.319173
1199.220467679000194, -0.00190424, -0.00322779, -0.00155142, 0.0363871, 0.534256, 0.319416
1199.2537840460001917, -0.00190462, -0.00322724, -0.00155273, 0.0365856, 0.533657, 0.320353
1199.2871003460002157, -0.00190455, -0.00322712, -0.00155292, 0.0366089, 0.533695, 0.320401
1199.3204166790001182, -0.00190476, -0.00322652, -0.00155289, 0.0366561, 0.534024, 0.320311
1199.353733012000248, -0.00190448, -0.00322599, -0.00155335, 0.0367441, 0.534116, 0.320201
1199.3870493790002456, -0.00190469, -0.00322739, -0.00155331, 0.0366551, 0.533536, 0.320309
1199.4203657120001481, -0.00190525, -0.00322847, -0.00155357, 0.0366104, 0.532975, 0.320399
1199.4536820460000399, -0.00190459, -0.00322769, -0.00155437, 0.036755, 0.533131, 0.32064
1199.4869983790001697, -0.00190504, -0.0032264, -0.00155361, 0.0367979, 0.534043, 0.320351
1199.5203147120000722, -0.00190519, -0.00322847, -0.00155438, 0.0367049, 0.533198, 0.320586
1199.5537810120001723, -0.00190495, -0.00322964, -0.00155503, 0.0366762, 0.532795, 0.320664
1199.5870973460000641, -0.00190554, -0.00323238, -0.00155553, 0.0364833, 0.532429, 0.321704
1199.6204137120000723, -0.00190705, -0.00323495, -0.00155578, 0.0362251, 0.531862, 0.32186
1199.6537300460001916, -0.00190728, -0.00323635, -0.00155601, 0.036092, 0.531882, 0.322326
1199.6870463460002156, -0.00190743, -0.00323792, -0.00155667, 0.0359907, 0.53133, 0.322525
1199.7203627120002238, -0.00190769, -0.00323827, -0.00155679, 0.0359519, 0.531245, 0.322726
1199.7536789840000893, -0.00190749, -0.00323814, -0.00155692, 0.0359234, 0.531469, 0.322922
1199.7869953460001398, -0.00190746, -0.0032374, -0.00155674, 0.0359976, 0.531294, 0.322879
1199.8203116790000422, -0.00190754, -0.00323752, -0.0015569, 0.0359787, 0.531124, 0.32286
1199.8536280460000398, -0.00190771, -0.00323796, -0.00155718, 0.0359149, 0.531012, 0.322889
1199.8870943790002457, -0.00190849, -0.00323862, -0.00155757, 0.0358527, 0.530735, 0.322859
1199.9204106790000424, -0.00190974, -0.00323931, -0.00155797, 0.0358733, 0.530306, 0.323418
1199.95372704600004, -0.00190987, -0.00323843, -0.00155735, 0.0359728, 0.530485, 0.324099
1199.9870438360001117, -0.00191088, -0.00323822, -0.001557, 0.0360238, 0.530293, 0.324872
1200.0203596650001145, -0.00191092, -0.00323798, -0.00155697, 0.0360531, 0.530322, 0.325078
1200.0536760460001915, -0.0019105, -0.00323756, -0.0015569, 0.0361042, 0.530441, 0.325332
1200.0869923790000939, -0.00191091, -0.00323711, -0.00155641, 0.0361547, 0.530378, 0.32565
1200.1203087120002237, -0.00191178, -0.00323683, -0.00155617, 0.036188, 0.530289, 0.326089
1200.1536250120002478, -0.00191237, -0.00323685, -0.00155596, 0.0362196, 0.530018, 0.32631
1200.1869413790002454, -0.00191227, -0.00323584, -0.00155567, 0.0363051, 0.530068, 0.326526
1200.2204077120002239, -0.00191208, -0.00323491, -0.00155567, 0.0363945, 0.530101, 0.326856
1200.253723988000047, -0.00191152, -0.00323414, -0.00155607, 0.0364928, 0.530347, 0.327065
1200.2870403790002456, -0.0019108, -0.00323347, -0.00155603, 0.0365407, 0.530505, 0.327227
1200.320356712000148, -0.00191136, -0.0032337, -0.00155617, 0.0365526, 0.53012, 0.327488
1200.3536730170001192, -0.00191122, -0.00323285, -0.0015566, 0.0366639, 0.530231, 0.327623
1200.3869893790001697, -0.00191069, -0.00323254, -0.00155687, 0.0366998, 0.530405, 0.327765
1200.4203056790001938, -0.00191066, -0.00323208, -0.0015572, 0.0367896, 0.530237, 0.327773
1200.4536220170000433, -0.00190951, -0.0032309, -0.0015575, 0.0368844, 0.530792, 0.327778
1200.4869383220002419, -0.00190859, -0.00323002, -0.00155738, 0.0369234, 0.531367, 0.327805
1200.5202547120002237, -0.0019103, -0.00323152, -0.00155706, 0.0368193, 0.530546, 0.328624
1200.5535710120002477, -0.00191087, -0.00323231, -0.00155772, 0.0368485, 0.529867, 0.328386
1200.5870373690001998, -0.00191069, -0.00323154, -0.00155891, 0.0370145, 0.529713, 0.328335
1200.6203536790001181, -0.00191166, -0.00323236, -0.0015601, 0.0370852, 0.528939, 0.32816
1200.653670017000195, -0.00191079, -0.00323185, -0.00156006, 0.0371035, 0.529357, 0.328303
1200.6869863790002455, -0.00191104, -0.00323162, -0.00155945, 0.0370685, 0.529426, 0.328697
1200.7203027120001479, -0.00191113, -0.00323244, -0.00155956, 0.0369822, 0.529249, 0.328929
1200.7536190450000504, -0.00191162, -0.00323308, -0.0015589, 0.0368333, 0.529236, 0.329201
1200.7869353790001696, -0.00191313, -0.00323497, -0.00155836, 0.0365645, 0.528767, 0.32961
1200.8202517120000721, -0.00191365, -0.00323575, -0.00155867, 0.0365182, 0.5283, 0.330049
1200.8535680120000961, -0.00191436, -0.00323666, -0.00155888, 0.0364555, 0.527787, 0.330369
1200.8868843790000938, -0.00191525, -0.00323824, -0.00155863, 0.0362269, 0.527233, 0.330416
1200.920350684000141, -0.00191588, -0.00323922, -0.00155814, 0.0360026, 0.526936, 0.330131
1200.9536670450002021, -0.00191592, -0.00323927, -0.00155808, 0.0359687, 0.526966, 0.330141
1200.9869833170000675, -0.00191637, -0.00323991, -0.00155793, 0.0358683, 0.526723, 0.329991
1201.0202997120002237, -0.00191683, -0.00324085, -0.00155772, 0.0357436, 0.526397, 0.329746
1201.0536160450001262, -0.00191656, -0.00324039, -0.00155779, 0.0357992, 0.52662, 0.329965
1201.0869323790002454, -0.00191635, -0.00324036, -0.00155814, 0.0357883, 0.526644, 0.329955
1201.1202486790000421, -0.00191599, -0.00323954, -0.0015582, 0.0357935, 0.527079, 0.33036
1201.1535650450000503, -0.00191661, -0.00323937, -0.00155842, 0.0359108, 0.526902, 0.330614
1201.1868813500002489, -0.00191676, -0.00323926, -0.00155855, 0.0359578, 0.526864, 0.330684
1201.2201976840001407, -0.00191662, -0.00323785, -0.00155883, 0.0361045, 0.527235, 0.331018
1201.2535140450002018, -0.0019159, -0.00323587, -0.00155981, 0.0363513, 0.527704, 0.331163
1201.2869803790001697, -0.0019161, -0.00323658, -0.00155959, 0.0362626, 0.52741, 0.330957
1201.3202966830001515, -0.00191694, -0.00323676, -0.00155999, 0.0363145, 0.526788, 0.331444
1201.353613045000202, -0.00191623, -0.00323531, -0.00156056, 0.0364872, 0.526855, 0.331852
1201.3869293790000938, -0.00191528, -0.00323423, -0.00156082, 0.0365672, 0.527249, 0.331795
1201.4202457120002236, -0.00191481, -0.00323364, -0.00156204, 0.0367179, 0.527233, 0.331645
1201.4535620450001261, -0.00191449, -0.00323325, -0.00156206, 0.0367418, 0.52743, 0.331635
1201.4868783790002453, -0.00191396, -0.00323233, -0.00156254, 0.0368153, 0.52784, 0.331329
1201.520194679000042, -0.00191313, -0.00323136, -0.0015625, 0.0368458, 0.528385, 0.330874
1201.553511017000119, -0.00191347, -0.00323188, -0.00156273, 0.0368253, 0.528135, 0.330738
1201.5868273790001695, -0.00191367, -0.00323239, -0.00156325, 0.0368298, 0.527608, 0.331009
1201.6202936830002272, -0.00191317, -0.00323172, -0.00156304, 0.0368552, 0.528005, 0.330743
1201.6536100450000504, -0.00191298, -0.00323059, -0.0015632, 0.036945, 0.528334, 0.330888
1201.6869263450000744, -0.00191274, -0.00322879, -0.00156276, 0.0370292, 0.528938, 0.331321
1201.7202426830001514, -0.00191269, -0.00322707, -0.00156201, 0.037069, 0.529664, 0.331772
1201.7535590120000961, -0.00191315, -0.00322723, -0.00156165, 0.0369968, 0.529793, 0.332296
1201.7868753790000937, -0.00191307, -0.00322759, -0.00156176, 0.0369666, 0.529764, 0.332298
1201.8201916790001178, -0.00191338, -0.00322877, -0.00156176, 0.0368537, 0.529642, 0.332498
1201.853508045000126, -0.00191307, -0.0032312, -0.00156263, 0.036688, 0.529023, 0.332473
1201.8868243790002452, -0.00191317, -0.00323211, -0.00156274, 0.0365278, 0.528989, 0.332787
1201.9201406790000419, -0.00191323, -0.00323383, -0.0015634, 0.0363274, 0.528925, 0.333043
1201.9534570170001189, -0.00191344, -0.00323511, -0.00156382, 0.0362282, 0.528594, 0.333265
1201.9869233450001502, -0.00191353, -0.0032361, -0.00156416, 0.0361407, 0.528435, 0.333522
1202.0202397120001478, -0.00191385, -0.00323613, -0.00156405, 0.0361112, 0.528572, 0.333886
1202.053556017000119, -0.00191448, -0.00323575, -0.0015635, 0.0361759, 0.528386, 0.334161
1202.0868723790001695, -0.00191555, -0.00323582, -0.00156338, 0.0362245, 0.527989, 0.334632
1202.1201886830001513, -0.00191649, -0.00323625, -0.00156338, 0.0362367, 0.527554, 0.335063
1202.1535050450002018, -0.00191718, -0.0032356, -0.00156284, 0.0363114, 0.527507, 0.335582
1202.186821350000173, -0.00191779, -0.00323538, -0.00156262, 0.0363441, 0.527476, 0.336046
