time, bias_gyr_x, bias_gyr_y, bias_gyr_z, bias_acc_x, bias_acc_y, bias_acc_z
-1, 0, 0, 0, 0, 0, 0
-1, 0, 0, 0, 0, 0, 0
608.30637816099999782, 0, 0, 0, 0, 0, 0
608.33969446100002187, -0.00211365, 0.00717355, -0.00292516, -3.05073e-05, -4.51925e-05, 0.000122865
608.37301079899998513, -0.00288498, -0.00234282, -0.00172546, 0.00244226, -6.9216e-05, -0.000474424
608.40632713200000126, -0.00316698, -0.00183783, 0.00055831, -0.00227109, 6.72789e-05, 0.000499603
608.43964346500001739, -0.0022455, -0.00227911, 0.00042326, -0.0105304, 5.51392e-05, 0.00243589
608.4729598269999542, -0.0022163, -0.00164158, -0.000172842, -0.027354, -0.000143185, 0.00645022
608.50627616099995976, -0.00193108, -0.00212757, 1.92439e-05, -0.0438618, -0.000327616, 0.0102563
608.53959246499994151, -0.0020559, -0.00271155, -0.000212304, -0.0473813, -0.000371942, 0.0110594
608.5730588459999808, -0.00220269, -0.00279343, -0.0003385, -0.0569907, -0.000504204, 0.013279
608.60637516099995992, -0.00193088, -0.00225767, -0.000358168, -0.0802549, -0.000795778, 0.0187531
608.63969149399997605, -0.00171301, -0.0019059, -0.000438988, -0.0889852, -0.00090362, 0.0208629
608.67300779899994723, -0.00151078, -0.00196917, -0.000579587, -0.0860929, -0.0008718, 0.0202049
608.70632409899997128, -0.00146767, -0.00212607, -0.00040073, -0.0879441, -0.000897122, 0.0206582
608.73964046100002179, -0.00133191, -0.00213439, -0.00039483, -0.0882739, -0.000902539, 0.0207445
608.77295682700002999, -0.00132666, -0.00209806, -0.000391876, -0.0892763, -0.000916613, 0.0209881
608.80627316100003554, -0.00133726, -0.00204275, -0.000445502, -0.0913084, -0.000947495, 0.0214781
608.83958943200002523, -0.00126324, -0.00198899, -0.000486125, -0.0934249, -0.000984855, 0.0219936
608.87290582699995412, -0.00137652, -0.00204086, -0.000495306, -0.0931151, -0.000978578, 0.0219159
608.9063721649999934, -0.00140597, -0.00207255, -0.000528265, -0.0936652, -0.000983279, 0.0220479
608.93968849400005183, -0.00140342, -0.00209683, -0.000531804, -0.0937557, -0.000983698, 0.0220711
608.9730047939999622, -0.00143726, -0.00209391, -0.00054371, -0.0951524, -0.00097676, 0.0224264
609.00632116099995983, -0.00144676, -0.00206571, -0.000551439, -0.0966126, -0.000954826, 0.0228103
609.03963749399997596, -0.00132232, -0.00190363, -0.00051942, -0.0995162, -0.000885735, 0.023603
609.07295507499998166, -0.00124405, -0.00179081, -0.000499395, -0.0998524, -0.000877559, 0.0236962
609.10627013199996327, -0.00128293, -0.00179248, -0.000455748, -0.0991395, -0.000885221, 0.0234793
609.1395864649999794, -0.00130273, -0.00180668, -0.000455226, -0.0989576, -0.000878678, 0.0234157
609.1729028270000299, -0.00136206, -0.00181405, -0.000498216, -0.0984229, -0.000863687, 0.0232505
609.20621916100003546, -0.00141249, -0.00182269, -0.000495619, -0.09846, -0.000858851, 0.0232658
609.23953549400005159, -0.00146661, -0.00179638, -0.000505648, -0.0989745, -0.000852755, 0.0234477
609.27300182700003006, -0.00149254, -0.00185541, -0.000560962, -0.097962, -0.00088352, 0.0231106
609.30631812699994043, -0.0015381, -0.00189435, -0.00065154, -0.0972169, -0.000916192, 0.022839
609.33963446500001737, -0.00155535, -0.00191979, -0.000672599, -0.0971195, -0.000919635, 0.0228009
609.37295079900002293, -0.00153787, -0.00195456, -0.000686888, -0.0971672, -0.000917853, 0.0228166
609.40626715999997032, -0.00151648, -0.00200829, -0.000696384, -0.096755, -0.000937124, 0.0226406
609.43958349399997587, -0.00151813, -0.00203036, -0.000735657, -0.0965167, -0.000946933, 0.0225497
609.47289979899994705, -0.00155971, -0.00205261, -0.000727743, -0.0966283, -0.000947857, 0.0226183
609.50621616000000813, -0.00158719, -0.00211474, -0.000715837, -0.0959135, -0.000964145, 0.022347
609.53953249400001368, -0.00165796, -0.00219636, -0.00068575, -0.0950146, -0.00101343, 0.0220278
609.57284889899995051, -0.00171136, -0.00228445, -0.000665942, -0.0941111, -0.0011118, 0.0217405
609.60631512700001622, -0.00173268, -0.00237147, -0.000673383, -0.0931091, -0.00129618, 0.0214513
609.63963146499997947, -0.00177525, -0.00247052, -0.000609247, -0.0907558, -0.00195423, 0.020885
609.67294779899998503, -0.00179605, -0.00240537, -0.00057319, -0.0881373, -0.0028328, 0.0204094
609.70626412699994034, -0.0018161, -0.00236919, -0.000555138, -0.0872314, -0.00315683, 0.0201834
609.73958045999995647, -0.00180252, -0.00234841, -0.000554295, -0.0886383, -0.00267407, 0.0199414
609.7728968269999541, -0.0018254, -0.00233269, -0.000550252, -0.0896433, -0.00234868, 0.0198366
609.80621312699997816, -0.00183783, -0.00231612, -0.000543994, -0.0903714, -0.00210565, 0.0196261
609.83952949399997578, -0.00183363, -0.00224824, -0.000540755, -0.0939938, -0.00140181, 0.0168068
609.87284579399999984, -0.00181736, -0.00218008, -0.000533544, -0.0957094, -0.00100686, 0.0149551
609.90616212700001597, -0.00180139, -0.00220769, -0.000539938, -0.0908537, -0.00117116, 0.0212369
609.9394784600000321, -0.00180154, -0.00225443, -0.000515758, -0.0881004, -0.0011255, 0.0255573
609.97294482699999207, -0.00180194, -0.00227572, -0.000514048, -0.0863272, -0.00106589, 0.0283422
610.00626114099998176, -0.00179337, -0.00228479, -0.000535674, -0.0847708, -0.000710567, 0.0313402
610.03957749400001376, -0.0018016, -0.00229422, -0.000544786, -0.08979, -0.00241155, 0.0215973
610.07289457000001676, -0.0018076, -0.00228165, -0.000555693, -0.0897201, -0.00249248, 0.0218976
610.10621011299997463, -0.00180561, -0.00227699, -0.000556498, -0.089361, -0.00247399, 0.0227769
610.1395264650000172, -0.00180521, -0.00228125, -0.000558525, -0.0887767, -0.00253703, 0.024225
610.17284282699995401, -0.00181128, -0.00229081, -0.000561568, -0.085091, -0.00603652, 0.0335729
610.20616246500003399, -0.00181335, -0.00230304, -0.00055417, -0.0863917, -0.00502012, 0.0300928
610.23947546499994132, -0.00180624, -0.0022964, -0.00056231, -0.0986977, 0.0145439, -0.00417633
610.27279182699999183, -0.00180833, -0.00229508, -0.000551739, -0.100535, 0.0177067, -0.00996272
610.30625812699997823, -0.00181318, -0.00229531, -0.000537817, -0.0985671, 0.0173197, -0.00496981
610.33957449399997586, -0.00181235, -0.00232446, -0.000533193, -0.075954, -0.0188582, 0.0644151
610.37289079799995761, -0.00179558, -0.00234311, -0.000546568, -0.0640535, -0.039525, 0.101334
610.40620716000000812, -0.00178382, -0.00235022, -0.00054648, -0.0661421, -0.0349615, 0.0937807
610.43952343199998722, -0.00178131, -0.0023208, -0.000529027, -0.0787083, -0.0161249, 0.0516061
610.47283983199997692, -0.00179661, -0.00230369, -0.000474591, -0.0919228, -0.00415411, 0.00557236
610.50615616000004593, -0.00178921, -0.00229796, -0.000481484, -0.0918569, -0.00406151, 0.00628599
610.53947249400005148, -0.00178345, -0.00229326, -0.00048705, -0.0905924, -0.00376728, 0.0112207
610.57278879800003324, -0.00177133, -0.00226517, -0.000493694, -0.0866353, -0.00444918, 0.026236
610.60610515999997006, -0.00173617, -0.00223864, -0.000499728, -0.0813398, -0.00461541, 0.0463719
610.63942149399997561, -0.00172716, -0.00225573, -0.000468064, -0.0738856, -0.00403523, 0.0754219
610.67288782699995409, -0.0017281, -0.00229464, -0.000448929, -0.0631709, -0.00214158, 0.117142
610.70620413200003895, -0.0017319, -0.00233487, -0.000433761, -0.0553576, 0.000162704, 0.147703
610.73952049399997577, -0.00173485, -0.00233769, -0.000405162, -0.0547836, 0.000494507, 0.149967
610.7728368269999919, -0.00174923, -0.00231487, -0.000394582, -0.0585904, -0.00147223, 0.135177
610.80615316000000803, -0.00174305, -0.00230202, -0.000391135, -0.0594076, -0.00187379, 0.131848
610.83946949400001358, -0.00173265, -0.00228056, -0.000378671, -0.0597833, -0.00212122, 0.130299
610.87278579799999534, -0.001734, -0.00228225, -0.000384797, -0.0491634, 0.00930826, 0.17371
610.90610216499999297, -0.00172982, -0.0022757, -0.000403667, -0.0416553, 0.0188208, 0.204185
610.93941845500000909, -0.00171432, -0.00227092, -0.000426396, -0.0451022, 0.014824, 0.190061
610.97273479399996177, -0.00171282, -0.00224277, -0.000431989, -0.0392988, 0.0248094, 0.213828
611.00620113200000105, -0.0016978, -0.00223268, -0.00045876, -0.0338541, 0.0354562, 0.235537
611.03951745999995637, -0.00168067, -0.00221685, -0.000482373, -0.0273449, 0.0518, 0.261472
611.07283379800003331, -0.00166384, -0.00220474, -0.000495992, -0.023948, 0.0604093, 0.275201
611.10615013200003887, -0.00165122, -0.00221469, -0.00048418, -0.0249088, 0.0574791, 0.272034
611.13946646499994131, -0.00164948, -0.00221492, -0.000484693, -0.0263303, 0.0540942, 0.266157
611.17278282699999181, -0.00164002, -0.00219651, -0.000505847, -0.0267789, 0.0560682, 0.263337
611.20609916000000794, -0.00163769, -0.00219094, -0.000508976, -0.0235353, 0.0619432, 0.27584
611.23941546499997912, -0.00163878, -0.00219186, -0.000526543, -0.020229, 0.0679434, 0.287432
611.27273179400003755, -0.00164214, -0.00219005, -0.000529151, -0.0147801, 0.0757549, 0.308796
611.30604813200000081, -0.00164273, -0.00219639, -0.000507185, -0.01098, 0.0798024, 0.324298
611.33951449400001366, -0.00161959, -0.00218709, -0.000490037, -0.0135081, 0.0801859, 0.314584
611.37283079400003771, -0.00161067, -0.00216668, -0.000488685, -0.0151943, 0.0805595, 0.307821
611.40614716000004591, -0.00159304, -0.00215236, -0.000512514, -0.0167061, 0.0844707, 0.301273
611.43946343200002502, -0.00159717, -0.00214393, -0.000528617, -0.0164208, 0.0874721, 0.301789
611.47277979299997241, -0.00160659, -0.00215279, -0.000535013, -0.0152899, 0.0869954, 0.305574
611.50609615999997004, -0.00161554, -0.00216063, -0.000516844, -0.0126395, 0.0868785, 0.316175
611.53941249299998617, -0.00162288, -0.00218276, -0.000495113, -0.0134948, 0.0967264, 0.312993
611.57272879300001023, -0.00165472, -0.00219672, -0.000503251, -0.0156745, 0.112419, 0.304615
611.60604512700001578, -0.0016676, -0.00223297, -0.000479169, -0.016149, 0.117876, 0.303053
611.63936149300002398, -0.001673, -0.00224706, -0.000484402, -0.0196857, 0.140185, 0.288972
611.67267779300004804, -0.00168167, -0.00224816, -0.000466382, -0.0219466, 0.155456, 0.279905
611.70614416000000801, -0.00170603, -0.00222762, -0.000457191, -0.0242321, 0.170123, 0.270624
611.73946049300002414, -0.0017451, -0.00221873, -0.000412264, -0.0235366, 0.165284, 0.273469
611.7727768270000297, -0.001769, -0.00222899, -0.000380209, -0.0221845, 0.154343, 0.278929
611.80609316000004583, -0.00178095, -0.00226564, -0.000350804, -0.0193752, 0.129645, 0.290306
611.83940946500001701, -0.00179768, -0.00223486, -0.000335446, -0.0179039, 0.115876, 0.296184
611.87272582699995382, -0.00180613, -0.00224101, -0.000335007, -0.0179693, 0.116408, 0.29558
611.90604215999996995, -0.00182205, -0.00225224, -0.000326201, -0.0158379, 0.0980358, 0.304489
611.93935849299998608, -0.00183184, -0.0022052, -0.00034011, -0.0200207, 0.13366, 0.286542
611.97267482699999164, -0.00182728, -0.00219751, -0.000362336, -0.0215378, 0.145907, 0.27967
612.00599113199996282, -0.00182768, -0.00218104, -0.000382683, -0.0192542, 0.129784, 0.290372
612.03945743199994922, -0.00183969, -0.00218609, -0.000362429, -0.0173078, 0.117734, 0.299357
612.0727738269999918, -0.00184331, -0.00217681, -0.000348091, -0.0217409, 0.147977, 0.277897
612.10609016000000793, -0.00184368, -0.00214787, -0.000335549, -0.0211236, 0.145329, 0.280905
612.13940650799997911, -0.00185142, -0.00214933, -0.000305726, -0.0256149, 0.168458, 0.258991
612.17272279799999524, -0.00184081, -0.00213516, -0.000277809, -0.0260837, 0.171257, 0.256607
612.20603913100001137, -0.00183629, -0.0021543, -0.000269252, -0.0243628, 0.167312, 0.26544
612.23935543599998255, -0.00184898, -0.00211317, -0.000256434, -0.0276778, 0.175188, 0.248553
612.27267179800003305, -0.00185157, -0.00204766, -0.000268341, -0.0310172, 0.181139, 0.231424
612.30598813100004918, -0.00184882, -0.00206807, -0.000243887, -0.0297531, 0.181889, 0.237945
612.3393069269999387, -0.00185117, -0.00206465, -0.000250566, -0.029133, 0.182655, 0.24109
612.37262082699999155, -0.00185214, -0.00208221, -0.000282192, -0.0281256, 0.183427, 0.246336
612.40608713100004934, -0.00185959, -0.00207631, -0.000263782, -0.0263391, 0.188343, 0.255328
612.43940350299999409, -0.00185299, -0.0020566, -0.000259001, -0.0263531, 0.187909, 0.255502
612.47271979799995734, -0.00187031, -0.00203496, -0.000273571, -0.0262608, 0.187829, 0.255847
612.50603612700001577, -0.00188471, -0.00206108, -0.000303466, -0.0238821, 0.198485, 0.267165
612.53935249300002397, -0.00187364, -0.00206882, -0.00030717, -0.0230482, 0.202974, 0.271179
612.57266882700002952, -0.0018653, -0.00206843, -0.000299916, -0.0217799, 0.210731, 0.277024
612.60598516000004565, -0.00186377, -0.00209023, -0.000323614, -0.0190987, 0.227822, 0.288868
612.63930146500001683, -0.00184336, -0.00211954, -0.000335832, -0.0158829, 0.249641, 0.303099
612.67261782699995365, -0.00182507, -0.00213227, -0.000364749, -0.0134831, 0.266509, 0.313393
612.70593415999996978, -0.00181141, -0.0021006, -0.000408041, -0.013091, 0.269848, 0.314871
612.73940045999995618, -0.0018319, -0.0020517, -0.000431511, -0.0119177, 0.279495, 0.319724
612.77271682699995381, -0.00182203, -0.00207285, -0.000444572, -0.0092508, 0.300353, 0.330618
612.80603319299996201, -0.00181724, -0.00209197, -0.000450344, -0.00663335, 0.320966, 0.341068
612.83934949299998607, -0.00181979, -0.00209082, -0.000450885, -0.00357592, 0.345342, 0.352921
612.87266579799995725, -0.00182701, -0.00210013, -0.000442993, -0.00309433, 0.349238, 0.354715
612.90598216000000775, -0.00184602, -0.00209569, -0.000483896, -0.00371189, 0.34431, 0.352699
612.93929849300002388, -0.0018758, -0.00209302, -0.00048392, -0.00373922, 0.344325, 0.352418
612.97261482700002944, -0.00188776, -0.00214761, -0.000466454, -0.00218718, 0.355267, 0.357742
613.00593116000004557, -0.00189613, -0.00214976, -0.000463735, -0.00161573, 0.358994, 0.35949
613.03924749299994801, -0.00189556, -0.00215316, -0.0004584, -0.000928072, 0.363165, 0.361676
613.07256379299997207, -0.00191042, -0.00217071, -0.000465311, 0.000207725, 0.369306, 0.365428
613.10603016000004573, -0.0019699, -0.00219087, -0.000455848, 0.00158136, 0.376051, 0.370113
613.13934646500001691, -0.0020042, -0.00219424, -0.000437883, 0.00306508, 0.383103, 0.375056
613.17266282699995372, -0.00202616, -0.00220957, -0.000403362, 0.00374867, 0.387202, 0.377283
613.20597912699997778, -0.00205316, -0.00221165, -0.000353501, 0.00408143, 0.389115, 0.378463
613.23929545999999391, -0.00209193, -0.00221195, -0.000248703, 0.00496747, 0.391394, 0.381677
613.27261179799995716, -0.00212626, -0.00221289, -0.000181049, 0.00539026, 0.392613, 0.383258
613.30592816000000767, -0.00213443, -0.00222078, -0.000147584, 0.00523893, 0.392707, 0.382855
613.33924449300002379, -0.0021322, -0.00221499, -0.000138048, 0.00519555, 0.392926, 0.38273
613.37256082700002935, -0.0021478, -0.00222121, -0.000117713, 0.0047372, 0.392288, 0.380425
613.40587712699993972, -0.00215155, -0.00222531, -8.90183e-05, 0.00424172, 0.394072, 0.377556
613.43934343099999751, -0.00215539, -0.00224366, -7.76598e-05, 0.00350871, 0.394712, 0.373482
613.47265979300004801, -0.00216196, -0.00225525, -8.28704e-05, 0.00198009, 0.395411, 0.364759
613.50597612699993988, -0.00215936, -0.00224391, -6.73281e-05, 0.00110456, 0.394777, 0.359226
613.53929249299994808, -0.00216154, -0.00223191, -5.4003e-05, -3.51435e-05, 0.393942, 0.352153
613.57260879800003295, -0.00216217, -0.00221936, -2.71819e-05, -0.00170361, 0.391148, 0.341512
613.60592513100004908, -0.00216952, -0.00220407, -1.08708e-06, -0.00364946, 0.387973, 0.328965
613.63924143600002026, -0.00217984, -0.00218928, 3.30268e-05, -0.00490862, 0.385965, 0.320793
613.67255779300000995, -0.00216207, -0.00213885, 3.36473e-05, -0.00551152, 0.385297, 0.317184
613.7058741309999732, -0.00213249, -0.00207288, -7.95391e-06, -0.00589884, 0.384848, 0.314869
613.73919046499997876, -0.00210622, -0.00202951, -2.65425e-05, -0.00601551, 0.385385, 0.314166
613.77250682600003984, -0.00209436, -0.00201127, -5.7308e-05, -0.00631567, 0.383994, 0.312319
613.80597316000000774, -0.00208599, -0.00199491, -8.6873e-05, -0.00616734, 0.385311, 0.313289
613.83928949300002387, -0.00207927, -0.0019614, -0.00010315, -0.00538046, 0.391354, 0.318089
613.87260579300004792, -0.00208938, -0.00192707, -0.000115891, -0.0047837, 0.396066, 0.321564
613.90592216000004555, -0.00209687, -0.00189524, -0.000114612, -0.00424348, 0.4004, 0.324736
613.93923849299994799, -0.00209016, -0.0018745, -0.000126057, -0.00407301, 0.401826, 0.32576
613.97255482599996412, -0.00208929, -0.00185201, -0.000154803, -0.00356117, 0.406223, 0.328525
614.00587115999996968, -0.00208312, -0.0018372, -0.000168516, -0.00292459, 0.412465, 0.33165
614.03918749800004662, -0.00207363, -0.00181508, -0.000187827, -0.00185197, 0.421468, 0.337086
614.07250379799995699, -0.00207046, -0.00182261, -0.000210188, -0.000937426, 0.427875, 0.341901
614.10582016000000749, -0.00206809, -0.00182332, -0.000232245, -2.57342e-05, 0.435031, 0.346166
614.13928649299998597, -0.00206024, -0.00181628, -0.000255706, 0.000768068, 0.440389, 0.349638
614.1726028260000021, -0.0020551, -0.00181532, -0.0002836, 0.0015628, 0.446029, 0.352578
614.20591913099997328, -0.00205682, -0.00182408, -0.000297873, 0.00239464, 0.452082, 0.355418
614.23923546000003171, -0.00206365, -0.00182551, -0.000297445, 0.00300519, 0.456376, 0.357319
614.27255179799999496, -0.00206767, -0.00182558, -0.000290669, 0.00339349, 0.45949, 0.358598
614.30586816000004546, -0.00206085, -0.00186022, -0.000290647, 0.00438401, 0.464805, 0.361543
614.33918446500001664, -0.0020598, -0.00186468, -0.000295842, 0.00513521, 0.469938, 0.363393
614.37250079800003277, -0.00205987, -0.00186924, -0.000290738, 0.00541881, 0.472608, 0.36423
614.40581715999996959, -0.00207054, -0.00186163, -0.000275332, 0.00605185, 0.477106, 0.365742
614.43913346399995135, -0.00210058, -0.00185347, -0.000250649, 0.00689298, 0.479657, 0.367449
614.47259979800003293, -0.00214623, -0.00185892, -0.000219675, 0.00722579, 0.479832, 0.368012
614.50591615999996975, -0.00217539, -0.00185024, -0.000181718, 0.00744161, 0.480189, 0.368407
614.53923246399995151, -0.00219976, -0.00183374, -0.000145684, 0.00783897, 0.479377, 0.368986
614.57254879300000994, -0.00221634, -0.00182138, -0.000107037, 0.0081951, 0.47798, 0.369415
614.60586513099997319, -0.00221033, -0.00182737, -0.000109608, 0.00849483, 0.475984, 0.369641
614.63918149300002369, -0.00220101, -0.00184004, -0.00012615, 0.00870645, 0.474594, 0.369621
614.67249782600003982, -0.00219748, -0.00186602, -9.92783e-05, 0.00872178, 0.474561, 0.369172
614.70581416000004538, -0.00220334, -0.00188917, -8.87189e-05, 0.00851756, 0.476747, 0.368701
614.73913046400002713, -0.00221271, -0.00190126, -6.72769e-05, 0.00814407, 0.482759, 0.368158
614.7724468500000512, -0.00222414, -0.00191529, -4.57193e-05, 0.00776953, 0.488431, 0.367379
614.80576313100004882, -0.00222508, -0.00193686, -2.46804e-05, 0.00719201, 0.495492, 0.366142
614.83922946400002729, -0.00223209, -0.00195752, -1.46309e-05, 0.00682578, 0.500732, 0.365133
614.87254580700005135, -0.00223545, -0.00196107, -5.45099e-06, 0.00665401, 0.503001, 0.364446
614.90586213100004898, -0.0022468, -0.0019668, 6.88955e-06, 0.0065599, 0.505453, 0.364141
614.93917846399995142, -0.00225331, -0.00197559, 2.8821e-06, 0.00606408, 0.509392, 0.362557
614.97249476399997548, -0.00225821, -0.00196979, 1.55173e-06, 0.00553228, 0.513349, 0.360928
615.0058111309999731, -0.00226372, -0.00195252, 1.42864e-06, 0.00471084, 0.518417, 0.358177
615.03912746900005004, -0.00226411, -0.00193309, 2.01971e-06, 0.00376066, 0.522853, 0.354875
615.07244379799999479, -0.00226951, -0.00192428, 3.35613e-06, 0.00329527, 0.525292, 0.353325
615.10576016000004529, -0.00226844, -0.00190395, -7.11262e-06, 0.00315001, 0.527514, 0.352945
615.13907649299994773, -0.00225878, -0.00186795, -3.1582e-05, 0.0031269, 0.530038, 0.353113
615.17254276899996057, -0.00225436, -0.00184322, -7.85823e-05, 0.00331913, 0.532617, 0.354145
615.20585912599995027, -0.00224661, -0.0018359, -0.000134532, 0.00339051, 0.533294, 0.35448
615.2391754640000272, -0.00223409, -0.00182087, -0.000163365, 0.00353246, 0.534722, 0.355201
615.27249182599996402, -0.00221445, -0.00177616, -0.000190071, 0.00402734, 0.539734, 0.357676
615.30580813100004889, -0.00221941, -0.00176842, -0.000193079, 0.0041958, 0.541534, 0.358554
615.3391244929999857, -0.00221581, -0.0017666, -0.000201947, 0.00444681, 0.544099, 0.359845
615.37244082600000183, -0.0022172, -0.0017374, -0.000227602, 0.00524672, 0.553049, 0.363538
615.40575710200005233, -0.00222044, -0.00172832, -0.0002516, 0.00618901, 0.563322, 0.368065
615.43907346000003145, -0.00221823, -0.00174015, -0.000260989, 0.0072814, 0.574541, 0.372996
615.47238982600003965, -0.00221644, -0.00175013, -0.000266101, 0.00827647, 0.583558, 0.377306
615.50570613100001083, -0.00221918, -0.00173903, -0.000266665, 0.00912659, 0.591336, 0.380779
615.53917249300002368, -0.00221653, -0.00173923, -0.000287096, 0.00997602, 0.598036, 0.383879
615.57248882600003981, -0.00220903, -0.00173773, -0.000303803, 0.0107388, 0.604417, 0.38627
615.60580516400000306, -0.00221063, -0.00174291, -0.000300364, 0.0113753, 0.608842, 0.388176
615.63912146400002712, -0.00220631, -0.00176818, -0.000305083, 0.0120068, 0.611341, 0.389851
615.67243779299997186, -0.00220485, -0.00179703, -0.000298766, 0.0124547, 0.614022, 0.390929
615.70575412599998799, -0.0022158, -0.00181062, -0.000276475, 0.0129388, 0.614886, 0.391958
615.73907046399995124, -0.00225577, -0.00180362, -0.000226811, 0.0132904, 0.614649, 0.392634
615.77238684999997531, -0.0023086, -0.00179874, -0.000156034, 0.0134859, 0.612811, 0.392762
615.8057031600000073, -0.00232937, -0.00179253, -0.000116077, 0.0136911, 0.608657, 0.392741
615.83901949300002343, -0.00234344, -0.00178287, -9.00095e-05, 0.0139297, 0.60094, 0.39241
615.87248579300000983, -0.00236287, -0.00179089, -4.96457e-05, 0.0140205, 0.596655, 0.392115
615.90580212600002596, -0.00238071, -0.00178448, -1.84521e-05, 0.0141301, 0.589566, 0.391539
615.93911849300002359, -0.00240899, -0.00179156, 2.49682e-05, 0.0142594, 0.581488, 0.390805
615.97243479300004765, -0.0024434, -0.00181055, 5.61227e-05, 0.0142178, 0.584552, 0.390888
616.00575115899994216, -0.00246087, -0.00181176, 8.86491e-05, 0.0140004, 0.599864, 0.39184
616.03906159199993908, -0.00246585, -0.00182093, 0.000108167, 0.0138987, 0.607077, 0.392182
616.07237179599997035, -0.00247302, -0.0018472, 0.000134306, 0.0139165, 0.607201, 0.392025
616.10568193699998574, -0.00247777, -0.00187601, 0.000147981, 0.0138191, 0.616929, 0.392158
616.13899217300001965, -0.00249, -0.0018794, 0.000175827, 0.0136533, 0.625699, 0.391803
616.17230240499998217, -0.00250513, -0.0018862, 0.000205392, 0.0134245, 0.634823, 0.390992
616.20576258100004452, -0.00252719, -0.00187955, 0.000223242, 0.012959, 0.651414, 0.389848
616.23907274999999117, -0.00253654, -0.00186507, 0.000217754, 0.0126309, 0.661904, 0.38894
616.27238298700001451, -0.00255065, -0.00184214, 0.000226033, 0.0124509, 0.666973, 0.388176
616.3056931280000299, -0.00255524, -0.00183265, 0.000227481, 0.0122862, 0.673529, 0.387644
616.33900336499993955, -0.00254869, -0.00181546, 0.000217277, 0.0118683, 0.686744, 0.386885
616.37231359600002634, -0.00253575, -0.00179002, 0.000187953, 0.0114805, 0.697688, 0.386112
616.40562377100002323, -0.0025224, -0.00177507, 0.000154608, 0.0113632, 0.703288, 0.386123
616.43893397399995138, -0.00250329, -0.00175973, 0.000116711, 0.0114962, 0.706246, 0.386875
616.47224420600002759, -0.00249165, -0.00173328, 9.82415e-05, 0.0118697, 0.708392, 0.388558
616.50555437499997424, -0.00249027, -0.00171317, 9.56392e-05, 0.0121813, 0.709656, 0.389854
616.53886461199999758, -0.00249327, -0.00169071, 9.58465e-05, 0.0123532, 0.710441, 0.390521
616.57232478699995681, -0.00249775, -0.00167262, 0.000102114, 0.0125746, 0.711597, 0.391589
616.60563495700000658, -0.00250076, -0.00162793, 0.000113805, 0.0128769, 0.713038, 0.392993
616.63894516000004842, -0.00250682, -0.00162703, 0.000106516, 0.0129462, 0.713347, 0.393213
616.67225539699995807, -0.00250309, -0.00163446, 0.000100574, 0.0131287, 0.713998, 0.393955
616.7055655999999999, -0.00249618, -0.00163125, 8.39236e-05, 0.0137284, 0.715474, 0.395819
616.73887577400000737, -0.00249646, -0.00163603, 6.5013e-05, 0.0143601, 0.718608, 0.397898
616.77218600599996989, -0.00249989, -0.00166133, 5.13861e-05, 0.0149166, 0.718221, 0.399498
616.80549620900001173, -0.00249727, -0.00166817, 3.7844e-05, 0.0153067, 0.718725, 0.40036
616.83880641199993988, -0.00248439, -0.00167667, 7.19747e-06, 0.0156413, 0.719745, 0.400552
616.87211658199998965, -0.00247234, -0.00168796, -1.2736e-05, 0.0160352, 0.720904, 0.40081
616.90557679100004407, -0.00247218, -0.00169838, -1.28577e-05, 0.0164341, 0.720631, 0.401121
616.93888696600004096, -0.0024797, -0.00171259, -4.85177e-06, 0.01693, 0.717804, 0.401748
616.97219719700001406, -0.00249611, -0.00173254, 2.01519e-05, 0.0174189, 0.712211, 0.402423
617.00550738599997658, -0.00252242, -0.00170979, 3.63597e-05, 0.0178075, 0.703396, 0.402582
617.03882332199998473, -0.00254442, -0.0016897, 5.16351e-05, 0.0180279, 0.697758, 0.402606
617.07213960900003258, -0.00255039, -0.00168337, 6.502e-05, 0.0182035, 0.686249, 0.401867
617.10545591300001433, -0.00255672, -0.00167326, 8.80409e-05, 0.0182918, 0.674387, 0.400884
617.13877225199996701, -0.00256721, -0.00166901, 9.71031e-05, 0.0183045, 0.677388, 0.401114
617.17208864199994878, -0.00257847, -0.00167071, 0.0001141, 0.0182605, 0.681477, 0.401428
617.20540542300000197, -0.00258325, -0.0016705, 0.000125925, 0.0182466, 0.684066, 0.401469
617.23872130899997046, -0.0025842, -0.00168268, 0.000127668, 0.0181704, 0.691562, 0.40145
617.27218760899995686, -0.00258626, -0.00168745, 0.000141105, 0.0181125, 0.697024, 0.401355
617.30550397499996507, -0.00258547, -0.0016923, 0.000158662, 0.0179928, 0.707237, 0.400696
617.33882030899997062, -0.00258497, -0.00170176, 0.0001602, 0.0179087, 0.713903, 0.400054
617.37213664199998675, -0.00258878, -0.00170004, 0.000164157, 0.0178409, 0.71829, 0.399301
617.40545291299997643, -0.00259389, -0.0017035, 0.000179656, 0.017709, 0.725952, 0.397921
617.43876927999997406, -0.00259383, -0.0017028, 0.000186023, 0.0175561, 0.734799, 0.397045
617.47208564200002456, -0.0025863, -0.00170411, 0.00016904, 0.0172959, 0.750251, 0.39695
617.50540194699999574, -0.00259166, -0.00169218, 0.000158986, 0.0171771, 0.755174, 0.397082
617.53871830900004625, -0.00260201, -0.00169113, 0.000141678, 0.0171686, 0.757675, 0.397374
617.57203464199994869, -0.00259417, -0.00168085, 0.000136046, 0.0172498, 0.759917, 0.397809
617.60550097500004085, -0.00256672, -0.0016505, 0.000116682, 0.0171716, 0.762577, 0.397808
617.63881727499995122, -0.00255666, -0.00161613, 0.000116045, 0.0171811, 0.764243, 0.397853
617.67213361300002816, -0.00255921, -0.00161255, 0.000119418, 0.0172025, 0.764747, 0.397844
617.70544997499996498, -0.00255603, -0.00160102, 0.000123357, 0.0171582, 0.765005, 0.397637
617.73876630899997053, -0.00256261, -0.00158316, 0.000121809, 0.0172116, 0.766164, 0.397427
617.77208261299995229, -0.00256694, -0.00156825, 0.000117914, 0.0172607, 0.767181, 0.397284
617.80539897500000279, -0.00257903, -0.00157659, 0.00012973, 0.0175794, 0.770205, 0.39801
617.83871527999997397, -0.0025785, -0.00158437, 0.000121119, 0.0180971, 0.775313, 0.398586
617.8720316090000324, -0.00258031, -0.00157488, 0.000105294, 0.0186787, 0.781398, 0.39901
617.90534794699999566, -0.00257537, -0.00158792, 8.02496e-05, 0.0190961, 0.785005, 0.398916
617.93866425099997741, -0.00256062, -0.001596, 5.57645e-05, 0.0193325, 0.787493, 0.398647
617.97213060900003256, -0.00255297, -0.00158015, 3.57498e-05, 0.0195844, 0.789953, 0.398116
618.00544694200004869, -0.00254236, -0.00158389, 1.80109e-05, 0.0196458, 0.791331, 0.397485
618.03876327499995114, -0.00254194, -0.00158962, 1.57328e-05, 0.0198396, 0.793165, 0.397178
618.07207960899995669, -0.00254423, -0.00158273, 2.23074e-05, 0.0201509, 0.79577, 0.396885
618.10539597499996489, -0.00254519, -0.00157373, 1.85432e-05, 0.0202874, 0.797802, 0.396779
618.138712246999944, -0.00256965, -0.00157592, 4.56616e-05, 0.0206294, 0.795594, 0.395978
618.1720286129999522, -0.00257764, -0.0015668, 4.56214e-05, 0.0208224, 0.793113, 0.395272
618.20534497500000271, -0.00257216, -0.00156915, 4.0413e-05, 0.0208961, 0.789855, 0.394691
618.23866130800001883, -0.00257573, -0.00156927, 3.97467e-05, 0.0209504, 0.782237, 0.393187
618.27197764200002439, -0.00257761, -0.00157053, 2.78626e-05, 0.0209571, 0.782531, 0.393137
618.30544397999994999, -0.00258559, -0.0015875, 2.88644e-05, 0.0208777, 0.790113, 0.394483
618.33876030800001899, -0.00259283, -0.00160618, 2.86709e-05, 0.0208261, 0.793923, 0.395002
618.37207739400002993, -0.00261002, -0.0016209, 4.63584e-05, 0.0207958, 0.796315, 0.39507
618.40539297500004068, -0.00260988, -0.00161778, 7.46615e-05, 0.0207028, 0.802518, 0.395579
618.43870928000001186, -0.00261283, -0.00161901, 8.8986e-05, 0.0206205, 0.807718, 0.395923
618.47202560799996718, -0.00262706, -0.00161008, 0.000102782, 0.0204791, 0.815136, 0.396417
618.50534194199997273, -0.0026331, -0.00159431, 0.000103513, 0.0202745, 0.823357, 0.39687
618.53865828000004967, -0.00263722, -0.00158588, 9.54385e-05, 0.0200116, 0.831741, 0.397334
618.57197464199998649, -0.00263531, -0.00158918, 0.000101084, 0.0197242, 0.839007, 0.397595
618.60529094699995767, -0.00263161, -0.00158404, 9.77896e-05, 0.0193949, 0.846042, 0.397852
618.63860730800001875, -0.0026137, -0.00157541, 8.86335e-05, 0.0192054, 0.851, 0.398182
618.67207364199998665, -0.00262178, -0.00158162, 9.01843e-05, 0.019245, 0.852844, 0.39845
618.70538997500000278, -0.00262968, -0.00158743, 0.00010706, 0.0190678, 0.85505, 0.398588
618.73870630800001891, -0.00262996, -0.00157861, 0.000122516, 0.0189409, 0.856119, 0.39858
618.77202264200002446, -0.00263975, -0.00156709, 0.00014224, 0.0188321, 0.856517, 0.398458
618.80533897500004059, -0.00264885, -0.00157176, 0.000169291, 0.0188091, 0.857026, 0.398533
618.83865527499995096, -0.00264428, -0.00157104, 0.000181699, 0.0190502, 0.859973, 0.398654
618.8719716130000279, -0.00263168, -0.00156081, 0.000181977, 0.0192021, 0.862237, 0.398393
618.90528797499996472, -0.00262397, -0.0015449, 0.0001739, 0.0193935, 0.864882, 0.398268
618.93860428000004958, -0.00262095, -0.00154372, 0.000164245, 0.0195493, 0.86712, 0.398007
618.9719206419999864, -0.00261746, -0.00153511, 0.000149829, 0.0197724, 0.870269, 0.397523
619.00538691300005212, -0.00261776, -0.00151038, 0.000141931, 0.0202469, 0.876177, 0.39735
619.03870327499998893, -0.00262208, -0.00150126, 0.000135328, 0.0208153, 0.882784, 0.397477
619.07201964199998656, -0.00262331, -0.0015009, 0.000126247, 0.0213779, 0.886996, 0.397545
619.10533597500000269, -0.00263027, -0.00150241, 0.00012583, 0.0218838, 0.88943, 0.397342
619.1386528460000136, -0.00264276, -0.00150565, 0.000149542, 0.0223028, 0.890819, 0.397091
619.17196864200002437, -0.00264951, -0.00152197, 0.000161501, 0.0225231, 0.890509, 0.396632
619.2052849750000405, -0.00265318, -0.00153893, 0.000164355, 0.0226949, 0.889122, 0.395838
619.23860128000001168, -0.002651, -0.00154302, 0.000173027, 0.0226247, 0.892475, 0.396632
619.27191761300002781, -0.00266225, -0.00155029, 0.000194407, 0.0225838, 0.895883, 0.397598
619.30523397499996463, -0.00267258, -0.00154147, 0.000204294, 0.0226256, 0.888529, 0.395484
619.33855025599996225, -0.00267539, -0.00155651, 0.000193834, 0.0226432, 0.890339, 0.3959
619.37201660799996716, -0.00268335, -0.00157156, 0.000184825, 0.022623, 0.887438, 0.395152
619.40533297499996479, -0.00268279, -0.00157955, 0.000180938, 0.0225546, 0.878629, 0.39287
619.43864927499998885, -0.00268172, -0.00158195, 0.000196665, 0.0225029, 0.874009, 0.39124
619.4719656129999521, -0.00268256, -0.00158535, 0.000210291, 0.0224529, 0.868668, 0.389274
619.5052819750000026, -0.0026847, -0.00158246, 0.000237156, 0.0223841, 0.865742, 0.387305
619.53859907499997917, -0.00266147, -0.00156189, 0.000266136, 0.0223038, 0.870797, 0.38721
619.57191461299998991, -0.0026605, -0.0015491, 0.000271373, 0.022275, 0.875355, 0.38802
619.60523097500004042, -0.00265194, -0.00154902, 0.000252468, 0.0222201, 0.88646, 0.393264
619.63854730799994286, -0.00265238, -0.00156102, 0.000246089, 0.0222267, 0.886671, 0.392791
619.67186360799996692, -0.00265816, -0.00155429, 0.000246954, 0.0221451, 0.890016, 0.394445
619.70532997500004058, -0.002668, -0.00156881, 0.000277347, 0.0222548, 0.887437, 0.392369
619.73864624600003026, -0.00265744, -0.00156983, 0.000283369, 0.0221288, 0.887444, 0.392293
619.77196264199994857, -0.00265588, -0.00156351, 0.000277323, 0.0219915, 0.887558, 0.392747
619.8052789749999647, -0.00265948, -0.00158889, 0.000274156, 0.0219466, 0.890555, 0.392696
619.83859528000004957, -0.00266127, -0.0016238, 0.000275115, 0.0218339, 0.891314, 0.392499
619.87191164599994408, -0.00266475, -0.00163444, 0.000279813, 0.0220104, 0.893126, 0.39176
619.90522797500000252, -0.00266204, -0.00163958, 0.000285958, 0.0223184, 0.897624, 0.389852
619.9385442799999737, -0.00266283, -0.00165001, 0.000285641, 0.0220912, 0.895017, 0.391079
619.9718606080000427, -0.00265921, -0.00164075, 0.000290957, 0.022065, 0.896054, 0.391793
620.00517697500004033, -0.0026579, -0.00165089, 0.000288739, 0.0221279, 0.896922, 0.391308
620.0384932749999507, -0.00267425, -0.00163431, 0.000307609, 0.0219294, 0.896014, 0.392984
620.07195964200002436, -0.00269316, -0.00161362, 0.000295312, 0.0216669, 0.894475, 0.391365
620.10527594600000612, -0.00269315, -0.00160963, 0.000279334, 0.0216064, 0.894624, 0.389485
620.1385922509999773, -0.00269687, -0.00160844, 0.000274216, 0.021531, 0.894532, 0.388758
620.17190860799996699, -0.00269368, -0.00160495, 0.000260759, 0.0213968, 0.894965, 0.387553
620.20522493700002542, -0.00268577, -0.00160862, 0.000235425, 0.0214161, 0.893502, 0.38187
620.23854130799998075, -0.00267901, -0.00160448, 0.000206605, 0.0214424, 0.891123, 0.375177
620.27185761299995193, -0.00268266, -0.00161608, 0.000209931, 0.0214377, 0.891927, 0.375716
620.30517397500000243, -0.00269747, -0.0016339, 0.000198991, 0.0214221, 0.884895, 0.371035
620.33849027999997361, -0.00270301, -0.00163469, 0.000210375, 0.0214335, 0.886047, 0.371652
620.37180664200002411, -0.00270165, -0.00161623, 0.000223523, 0.0215589, 0.896335, 0.377524
620.40527297500000259, -0.00269891, -0.00160508, 0.000259769, 0.0217135, 0.906257, 0.381869
620.43858930800001872, -0.00269965, -0.00162167, 0.000275401, 0.0215807, 0.899498, 0.378446
620.471905860999982, -0.00269141, -0.00158976, 0.00026354, 0.0220294, 0.919863, 0.386739
620.50522194099994522, -0.00269175, -0.00156218, 0.000263179, 0.0223246, 0.933963, 0.392176
620.53853828000001158, -0.00270327, -0.00156746, 0.000254018, 0.0216098, 0.908433, 0.38029
620.57185464099995897, -0.00271237, -0.00154364, 0.000274071, 0.0219127, 0.91976, 0.385159
620.60517094600004384, -0.00270479, -0.00156047, 0.000262036, 0.0216633, 0.910223, 0.381086
620.6384872800000494, -0.00269641, -0.0015709, 0.00025717, 0.0218673, 0.916695, 0.384807
620.67180360800000471, -0.0026915, -0.00158171, 0.000251219, 0.0217628, 0.913004, 0.383098
620.70511997500000234, -0.00269304, -0.0015777, 0.000250832, 0.0218265, 0.915266, 0.384315
620.73858628000004956, -0.00270033, -0.00157437, 0.000249811, 0.0216869, 0.910346, 0.38176
620.77190264099999695, -0.00271196, -0.00156636, 0.000244875, 0.0214887, 0.903396, 0.378038
620.80521970300003431, -0.00272737, -0.00155632, 0.000237974, 0.0213627, 0.898953, 0.375635
620.83853530800001863, -0.00273998, -0.00155189, 0.000235184, 0.0212995, 0.896627, 0.374411
620.87185164100003476, -0.00273534, -0.00153754, 0.000221569, 0.0212735, 0.895719, 0.373875
620.90516797500004031, -0.00273271, -0.00152193, 0.000210279, 0.0213079, 0.89678, 0.37459
620.93848428000001149, -0.00273249, -0.00150612, 0.000194915, 0.0213029, 0.896625, 0.374492
620.97180064099995889, -0.00273123, -0.00148858, 0.000178166, 0.0213177, 0.897041, 0.374877
621.00511694099998294, -0.00273538, -0.00147216, 0.000162898, 0.0213452, 0.897799, 0.375628
621.03843330799998057, -0.00273873, -0.00145509, 0.000146358, 0.0213568, 0.898079, 0.376022
621.0717496409999967, -0.002738, -0.00144217, 0.000128637, 0.0213584, 0.898077, 0.376199
621.1052159749999646, -0.0027381, -0.00142808, 0.000109803, 0.0213698, 0.898331, 0.37663
621.13853227899994636, -0.00274201, -0.00141394, 9.6014e-05, 0.0213831, 0.89862, 0.377095
621.17184864099999686, -0.00274286, -0.00140109, 7.55849e-05, 0.0213605, 0.8981, 0.376479
621.20516491800003678, -0.0027425, -0.00139029, 5.64664e-05, 0.021359, 0.898058, 0.376486
621.23848127899998417, -0.00273887, -0.00137888, 3.13491e-05, 0.0213797, 0.898514, 0.377138
621.2717976080000426, -0.00273399, -0.00136994, 4.3349e-06, 0.0213683, 0.898261, 0.376846
621.30511397500004023, -0.00273102, -0.00136209, -1.63504e-05, 0.021335, 0.897531, 0.375942
621.338430451000022, -0.0027316, -0.00135459, -3.4048e-05, 0.0212987, 0.896746, 0.374969
621.37174660799996673, -0.00272836, -0.00135414, -5.72899e-05, 0.0212573, 0.895851, 0.373891
621.40506297499996435, -0.0027275, -0.00135073, -7.41015e-05, 0.0212322, 0.895313, 0.373257
621.43852931300000364, -0.00272187, -0.00135099, -8.98747e-05, 0.0212057, 0.894748, 0.372585
621.47184564099995896, -0.00271644, -0.00135449, -0.000107065, 0.0211951, 0.894517, 0.372341
621.50516197499996451, -0.00271562, -0.00134892, -0.000127549, 0.0212094, 0.894807, 0.372736
621.53847827899994627, -0.00271641, -0.00134376, -0.000141312, 0.0212026, 0.894661, 0.372577
621.5717946080000047, -0.00270617, -0.00134893, -0.000166966, 0.0211703, 0.893977, 0.371785
621.60511097500000233, -0.0027032, -0.00134748, -0.000188773, 0.0211464, 0.893466, 0.371209
621.63842730800001846, -0.00270517, -0.0013386, -0.00021923, 0.0211163, 0.892824, 0.370483
621.67174395099993944, -0.00270984, -0.00132468, -0.000245255, 0.0210656, 0.891758, 0.369214
621.70505993200004013, -0.00271348, -0.00131863, -0.000265565, 0.0210395, 0.891208, 0.368575
621.7383762790000219, -0.00271113, -0.0013152, -0.000286886, 0.021019, 0.890772, 0.36808
621.77169299399997726, -0.00271231, -0.00130575, -0.000305003, 0.0210105, 0.890595, 0.367885
621.8051589750000403, -0.00271199, -0.00129893, -0.000322812, 0.0209985, 0.890341, 0.3676
621.83847527499995067, -0.00271463, -0.00128939, -0.000336876, 0.0209911, 0.890184, 0.367421
621.87179157900004611, -0.00271528, -0.00128711, -0.000349606, 0.0209758, 0.889867, 0.367034
621.90510794600004374, -0.00271741, -0.00128228, -0.00036258, 0.020954, 0.889419, 0.366473
621.93842427899994618, -0.00272176, -0.0012787, -0.000380233, 0.0209502, 0.889335, 0.366403
621.97174062700003105, -0.00273195, -0.00127454, -0.000396311, 0.0209476, 0.88927, 0.36637
622.00505694100002074, -0.00273382, -0.00128607, -0.000400893, 0.0208873, 0.888043, 0.364768
622.0383732750000263, -0.00273742, -0.00129372, -0.000411072, 0.0208698, 0.887684, 0.364333
622.07168960800004243, -0.00274394, -0.00125567, -0.000432884, 0.0208698, 0.887684, 0.364319
622.10500597500004005, -0.00274196, -0.00122784, -0.000450186, 0.0208598, 0.887485, 0.364042
622.13847230800001853, -0.00273905, -0.00121203, -0.000439907, 0.0209097, 0.888553, 0.365315
622.17178861299998971, -0.00272398, -0.00121481, -0.000448502, 0.0208951, 0.888247, 0.364944
622.20510497500004021, -0.00271232, -0.00122314, -0.000460204, 0.0208245, 0.886698, 0.363174
622.23842130799994266, -0.00270749, -0.00122761, -0.000459451, 0.0208083, 0.886328, 0.362762
622.27173764099995878, -0.00271152, -0.00121475, -0.000463987, 0.0208083, 0.886277, 0.362772
622.30505394600004365, -0.00272061, -0.00121252, -0.00045215, 0.0208463, 0.887112, 0.363736
622.33837025100001483, -0.00272366, -0.0012062, -0.000469333, 0.0208873, 0.888112, 0.364767
622.3716866409999966, -0.00271628, -0.00120808, -0.000475436, 0.0209962, 0.890447, 0.367542
622.40500294599996778, -0.00270491, -0.00121247, -0.000479796, 0.0209527, 0.889692, 0.366358
622.43831927899998391, -0.00269442, -0.00121953, -0.000483892, 0.0208905, 0.888448, 0.364643
622.47163561299998946, -0.00269621, -0.00122391, -0.000482446, 0.0209017, 0.888578, 0.364986
622.50510194100002082, -0.00269595, -0.0012153, -0.000472769, 0.0207948, 0.886685, 0.36181
622.53841825100005281, -0.00269117, -0.0012114, -0.0004757, 0.0207377, 0.885632, 0.360181
622.57173458399995525, -0.00268905, -0.00121977, -0.00048093, 0.0207531, 0.885942, 0.360617
622.60505094600000575, -0.002684, -0.00121593, -0.000473099, 0.0208776, 0.888505, 0.363861
622.63836730799994257, -0.00268054, -0.00120936, -0.000470299, 0.0210173, 0.89158, 0.367326
622.67168360799996663, -0.00267999, -0.0012036, -0.000469181, 0.0208108, 0.886738, 0.362416
622.70499997399997483, -0.0026774, -0.00121114, -0.000466786, 0.0206576, 0.883079, 0.358861
622.73831627399999888, -0.00267258, -0.00121647, -0.000458953, 0.0206033, 0.881848, 0.357574
622.77163264099999651, -0.0026711, -0.00121477, -0.000455871, 0.0207172, 0.884928, 0.360215
622.80494894100002057, -0.00266467, -0.00121692, -0.00045737, 0.0208367, 0.888405, 0.363037
622.83841527399999904, -0.00265988, -0.00122319, -0.00046449, 0.020864, 0.889141, 0.363647
622.87173164099999667, -0.00266066, -0.00122538, -0.000467291, 0.0208197, 0.887764, 0.362436
622.90504794100002073, -0.00265411, -0.00122251, -0.000471634, 0.0207908, 0.886512, 0.361181
622.93836427899998398, -0.0026527, -0.00122375, -0.000473327, 0.0207836, 0.886221, 0.360853
622.97168060800004241, -0.00265087, -0.00122266, -0.000473787, 0.0207918, 0.886679, 0.361385
623.00499694600000566, -0.00264814, -0.00121882, -0.000476035, 0.0208073, 0.889143, 0.363122
623.03831327900002179, -0.00264919, -0.00121079, -0.000475454, 0.0208133, 0.890655, 0.363948
623.07162961300002735, -0.00264575, -0.00121151, -0.000481114, 0.0207844, 0.886309, 0.361672
623.10494597399997474, -0.00264583, -0.00120941, -0.000491192, 0.020738, 0.881489, 0.359169
623.13826230799998029, -0.00264742, -0.00121197, -0.00049927, 0.0207149, 0.880185, 0.358925
623.17157861299995147, -0.00264464, -0.00120523, -0.000502004, 0.0207353, 0.881302, 0.359232
623.2050449739999749, -0.00264472, -0.00120079, -0.000502385, 0.0207636, 0.883657, 0.359748
623.23836127899994608, -0.0026448, -0.00120079, -0.000500995, 0.0207904, 0.884659, 0.359888
623.27167760800000451, -0.00264081, -0.00119686, -0.000496596, 0.0208781, 0.890572, 0.360678
623.30499569300002349, -0.00264305, -0.00119927, -0.000494083, 0.0208593, 0.889461, 0.361014
623.33831027899998389, -0.00264767, -0.00120577, -0.000492945, 0.0207218, 0.880837, 0.360661
623.3716266410000344, -0.00264719, -0.00120043, -0.000503684, 0.020612, 0.873516, 0.359936
623.40494297400005053, -0.0026464, -0.00120204, -0.000501689, 0.0206026, 0.874114, 0.359597
623.43825930799994239, -0.00264523, -0.00119663, -0.000499431, 0.0206027, 0.874401, 0.359259
623.47157560799996645, -0.00265338, -0.00119777, -0.000500922, 0.0204604, 0.868527, 0.358302
623.50489194099998258, -0.00265692, -0.0012022, -0.000501049, 0.020286, 0.859518, 0.357765
623.53835830799994255, -0.00266141, -0.00120691, -0.000503127, 0.0199604, 0.842723, 0.357172
623.57167464099995868, -0.00266523, -0.00121672, -0.000504561, 0.0196927, 0.828583, 0.357041
623.60499094099998274, -0.00267113, -0.00122342, -0.000503614, 0.0193984, 0.813701, 0.356764
623.63830730799998037, -0.00267825, -0.00122494, -0.000503708, 0.0191113, 0.798515, 0.3559
623.6716236409999965, -0.00267692, -0.00122056, -0.000500993, 0.0191426, 0.801599, 0.355351
623.70493994599996768, -0.00267623, -0.00121309, -0.000500019, 0.019253, 0.806768, 0.355004
623.73825630800001818, -0.00267942, -0.00121468, -0.000498294, 0.0191217, 0.799271, 0.355139
623.77157261199999994, -0.00268278, -0.00121405, -0.000499413, 0.0189522, 0.789943, 0.355468
623.80488897400005044, -0.00269129, -0.00121566, -0.00049454, 0.0187388, 0.778237, 0.355833
623.83820527399996081, -0.00269401, -0.00121964, -0.000492022, 0.018603, 0.771366, 0.356164
623.87167164100003447, -0.00269877, -0.00122557, -0.000488574, 0.0182469, 0.753229, 0.357155
623.9049879740000506, -0.00270217, -0.00123214, -0.000486577, 0.0177903, 0.730066, 0.358472
623.93830430799994247, -0.00270832, -0.00123218, -0.000480519, 0.0175369, 0.717215, 0.35917
623.97162061200003791, -0.0027108, -0.00122736, -0.000479254, 0.0175603, 0.719355, 0.358722
624.00493696000000909, -0.00271697, -0.00122677, -0.00047325, 0.0173516, 0.709488, 0.358988
624.03825324599995383, -0.00272209, -0.00123357, -0.000464442, 0.0170252, 0.69215, 0.360041
624.07156964099999641, -0.0027243, -0.00123576, -0.000462489, 0.0168377, 0.683155, 0.360288
624.10488598899996759, -0.00272557, -0.00124052, -0.000469093, 0.0170435, 0.694234, 0.359143
624.1382022740000366, -0.00272526, -0.00123647, -0.0004693, 0.0170597, 0.697317, 0.358537
624.17151860800004215, -0.00272288, -0.00123473, -0.00047305, 0.0170682, 0.699417, 0.358375
624.20483499299996311, -0.00272113, -0.00123631, -0.000480903, 0.0171455, 0.701856, 0.358836
624.23830130800001825, -0.00272304, -0.00123829, -0.000480614, 0.0172029, 0.704096, 0.358444
624.27161764100003438, -0.00272901, -0.00123869, -0.000482289, 0.0172163, 0.704021, 0.358471
624.30493394099994475, -0.0027301, -0.00123799, -0.000482121, 0.0172837, 0.704953, 0.358808
624.33825027900002169, -0.00272988, -0.00123482, -0.000477413, 0.0172104, 0.707709, 0.357169
624.37156660799996644, -0.00272837, -0.00123045, -0.000475869, 0.0171967, 0.710637, 0.356081
624.40488294600004338, -0.0027254, -0.00122875, -0.000477408, 0.017167, 0.710077, 0.355899
624.4381992739999987, -0.00272539, -0.00123329, -0.000475763, 0.0171422, 0.70349, 0.357272
624.47151561199996195, -0.00272595, -0.00123682, -0.000476057, 0.0171957, 0.698115, 0.358802
624.50483197400001245, -0.00272972, -0.0012431, -0.000470496, 0.0173018, 0.685257, 0.362759
624.53814830800001801, -0.00273209, -0.0012579, -0.000471925, 0.0173783, 0.679063, 0.364395
624.57161461199996211, -0.00273422, -0.00126037, -0.000468205, 0.0172899, 0.676431, 0.364596
624.60493094599996766, -0.00273365, -0.00126517, -0.000456716, 0.0174027, 0.660747, 0.368611
624.63824730800001817, -0.00273177, -0.00129995, -0.000456774, 0.0177307, 0.649527, 0.371904
624.67156364100003429, -0.0027244, -0.00129183, -0.000454518, 0.0176496, 0.654518, 0.369823
624.70487997400005042, -0.00270899, -0.00126812, -0.000447235, 0.0174879, 0.66049, 0.368007
624.73819630799994229, -0.00269715, -0.00124095, -0.000439999, 0.0173587, 0.661836, 0.367178
624.77151261200003773, -0.00269703, -0.00123941, -0.000440832, 0.0172154, 0.663398, 0.366232
624.80482894600004329, -0.00268921, -0.00123175, -0.000440711, 0.017264, 0.659732, 0.367351
624.8381453079999801, -0.00267813, -0.00121757, -0.000438177, 0.0173371, 0.657449, 0.368201
624.87146164099999623, -0.00266817, -0.00120756, -0.000438261, 0.0173487, 0.657516, 0.368197
624.90477792699994097, -0.00266249, -0.0012021, -0.000437832, 0.0173589, 0.657814, 0.368007
624.93824430699999084, -0.00265808, -0.00119802, -0.000435648, 0.0173315, 0.657892, 0.367692
624.97156064099999639, -0.00265281, -0.00119789, -0.000437923, 0.0172735, 0.658455, 0.367208
625.00487694100002045, -0.00265361, -0.00120567, -0.000439428, 0.0171047, 0.662129, 0.365551
625.03819327400003658, -0.00265678, -0.00120706, -0.000440165, 0.0170128, 0.663131, 0.364643
625.07150964100003421, -0.00265862, -0.00121894, -0.000443212, 0.0168645, 0.665674, 0.363129
625.10482597400005034, -0.00265966, -0.00122806, -0.000448133, 0.016741, 0.667733, 0.361849
625.13814230699995278, -0.00266409, -0.00123814, -0.000453922, 0.0165355, 0.669224, 0.359789
625.17145860699997684, -0.00266366, -0.00124422, -0.000460478, 0.0164284, 0.67021, 0.358564
625.20477553099999568, -0.00265959, -0.00124833, -0.000470971, 0.0163091, 0.669557, 0.357333
625.23809130699999059, -0.002662, -0.00123344, -0.000472261, 0.0163965, 0.661112, 0.359074
625.27155758399999286, -0.00266252, -0.00121031, -0.000471606, 0.0165069, 0.653167, 0.360883
625.30487397399997462, -0.0026698, -0.00120919, -0.00047455, 0.0165071, 0.647563, 0.361863
625.33819027399999868, -0.00267466, -0.00120302, -0.000471826, 0.0164947, 0.645895, 0.361822
625.37150664099999631, -0.00268019, -0.00119317, -0.000473082, 0.0165258, 0.641756, 0.362194
625.40482297400001244, -0.00268281, -0.00118958, -0.000481543, 0.016523, 0.634062, 0.363166
625.43813927899998362, -0.00268239, -0.00119165, -0.000483173, 0.0164995, 0.632413, 0.363358
625.47145560700005262, -0.00267956, -0.00119364, -0.000485601, 0.0165156, 0.631594, 0.363468
625.50477197400005025, -0.00267549, -0.00119088, -0.00048717, 0.0164837, 0.626342, 0.364036
625.53808827399996062, -0.00267917, -0.00117914, -0.000485782, 0.0164486, 0.618919, 0.364772
625.57140460699997675, -0.00268273, -0.00118845, -0.000481844, 0.0165, 0.621345, 0.36453
625.60472097399997438, -0.0026865, -0.00119369, -0.000480905, 0.0164881, 0.621783, 0.364446
625.63818725999999515, -0.00269289, -0.00119166, -0.000477669, 0.0164965, 0.621652, 0.364444
625.67150364099995841, -0.00269828, -0.00118883, -0.000473039, 0.0164776, 0.619982, 0.364628
625.70481994099998246, -0.00270862, -0.00117891, -0.000463252, 0.0163965, 0.616095, 0.36464
625.73813627399999859, -0.00271184, -0.0011773, -0.000463031, 0.0164087, 0.616359, 0.364762
625.77145260700001472, -0.002712, -0.00118043, -0.00046197, 0.0163771, 0.614502, 0.36492
625.80476894499997798, -0.00271178, -0.0011823, -0.000463491, 0.0163305, 0.611488, 0.365288
625.83808530700002848, -0.00271333, -0.00117978, -0.000462135, 0.0163409, 0.615091, 0.364082
625.87140161199999966, -0.00271854, -0.00118052, -0.000462564, 0.0163381, 0.617029, 0.363366
625.90471794500001579, -0.00272609, -0.00118637, -0.000464949, 0.0163262, 0.621338, 0.36175
625.93803424500003985, -0.00273743, -0.00119263, -0.00046846, 0.016337, 0.622422, 0.36173
625.97150061199999982, -0.00274019, -0.00119418, -0.000467945, 0.0163869, 0.624038, 0.361489
626.00481694099994456, -0.0027406, -0.00119363, -0.000466059, 0.0164012, 0.626914, 0.35975
626.03813330699995277, -0.00274205, -0.00118621, -0.000461121, 0.0163686, 0.628239, 0.358647
626.07144961200003763, -0.00274648, -0.00117806, -0.000457606, 0.0163416, 0.63004, 0.357904
626.10476597399997445, -0.00275256, -0.00117187, -0.000451254, 0.0163076, 0.628914, 0.35743
626.13808227399999851, -0.00276108, -0.00117722, -0.000445366, 0.0162286, 0.617961, 0.359405
626.17139860700001464, -0.00276134, -0.00119781, -0.000450377, 0.016178, 0.611063, 0.360315
626.20471494100002019, -0.00275611, -0.0012059, -0.000454717, 0.0161547, 0.613574, 0.358779
626.23803124500000195, -0.00275438, -0.00122156, -0.00045768, 0.0161196, 0.610203, 0.358407
626.27134760700005245, -0.00275589, -0.00122978, -0.000451035, 0.0160378, 0.599623, 0.359887
626.30466464100004487, -0.00275662, -0.00125981, -0.000456145, 0.0160405, 0.58769, 0.361563
626.3381302789999836, -0.00275388, -0.00128457, -0.000463392, 0.0161434, 0.584063, 0.362107
626.37144664100003411, -0.0027379, -0.00131715, -0.000490968, 0.0161342, 0.581757, 0.362379
626.40476297400005024, -0.00273666, -0.00133831, -0.000502345, 0.0161784, 0.580893, 0.361898
626.43807924999998704, -0.00273632, -0.00134482, -0.000503553, 0.0162039, 0.581382, 0.361176
626.47139564099995823, -0.00273732, -0.00134977, -0.000502276, 0.0162322, 0.58164, 0.360699
626.50471197399997436, -0.00273161, -0.00135806, -0.000501474, 0.0161944, 0.57905, 0.360365
626.53802827399999842, -0.00273242, -0.00134093, -0.000492585, 0.0160303, 0.582, 0.360147
626.57134464099999605, -0.00272966, -0.00134472, -0.000497783, 0.01611, 0.581781, 0.36046
626.60466097400001217, -0.00271921, -0.00134832, -0.000510953, 0.0161972, 0.581179, 0.360682
626.63797727400003623, -0.00272251, -0.00134184, -0.000500698, 0.0160398, 0.584285, 0.35998
626.67144361199996183, -0.00271907, -0.00132692, -0.000489418, 0.0159846, 0.583957, 0.359928
626.70475997400001233, -0.00271129, -0.00132883, -0.000490888, 0.0158519, 0.585601, 0.359346
626.73807628299994121, -0.00270675, -0.00133399, -0.000489689, 0.0156874, 0.587916, 0.358496
626.77139261199999964, -0.00270777, -0.00133734, -0.000484539, 0.0155175, 0.589181, 0.357877
626.80470897400005015, -0.00270135, -0.00134397, -0.000488059, 0.0154134, 0.590739, 0.357121
626.83802530699995259, -0.00269929, -0.0013499, -0.000491912, 0.0153426, 0.591725, 0.356506
626.87134160699997665, -0.00270004, -0.00134988, -0.000492278, 0.015319, 0.592005, 0.356233
626.9046579449999399, -0.00268835, -0.00136086, -0.000501588, 0.0152355, 0.592947, 0.355269
626.93797427399999833, -0.00268833, -0.00136738, -0.000507506, 0.0151462, 0.593848, 0.354108
626.97129060700001446, -0.00268682, -0.00137784, -0.000511598, 0.0150124, 0.594832, 0.352907
627.00475697399997443, -0.00268087, -0.00138134, -0.000515683, 0.0149659, 0.595074, 0.352297
627.03807330699999056, -0.00267941, -0.00135637, -0.000514441, 0.0150812, 0.592955, 0.352393
627.07138964099999612, -0.0026845, -0.00133432, -0.000510903, 0.0151702, 0.590328, 0.352749
627.10470597400001225, -0.00269019, -0.00132287, -0.00050711, 0.0152107, 0.587478, 0.353195
627.13802227899998343, -0.00269882, -0.00130538, -0.000498638, 0.0152608, 0.583027, 0.353802
627.17133861199999956, -0.00270812, -0.00129993, -0.000495504, 0.0152649, 0.579587, 0.354039
627.20465494500001569, -0.00271289, -0.00128737, -0.000492227, 0.0153056, 0.577428, 0.354236
627.2379713069999525, -0.00271109, -0.00127473, -0.000488179, 0.0152969, 0.574934, 0.354338
627.27128763999996863, -0.00270951, -0.00126289, -0.000488254, 0.015307, 0.572409, 0.354448
627.30460397399997419, -0.00271309, -0.00125322, -0.000487532, 0.0153336, 0.571446, 0.354554
627.33792030699999032, -0.00272331, -0.00123501, -0.000475859, 0.0153839, 0.574733, 0.354489
627.37138661200003753, -0.00272511, -0.00122357, -0.000469537, 0.0153852, 0.574944, 0.354343
627.40470291700000871, -0.00272486, -0.00120324, -0.000463072, 0.015404, 0.573199, 0.354517
627.4380192739999984, -0.00272674, -0.00117186, -0.000455345, 0.0154284, 0.572662, 0.354689
627.47133560700001453, -0.00271613, -0.00117537, -0.00046079, 0.0153948, 0.56499, 0.355337
627.50465197400001216, -0.00271171, -0.00117952, -0.000460603, 0.0153669, 0.563097, 0.355182
627.53796830700002829, -0.0027133, -0.00117587, -0.000457216, 0.0153739, 0.565549, 0.354797
627.57128461199999947, -0.00271313, -0.00117858, -0.000459072, 0.0154226, 0.571037, 0.354401
627.60460096899998916, -0.00271268, -0.0011747, -0.000454152, 0.0153779, 0.576996, 0.352964
627.63791727399996034, -0.00271161, -0.00116782, -0.000454745, 0.0153341, 0.577511, 0.351723
627.67123363999996855, -0.0027133, -0.00116683, -0.00045744, 0.0153364, 0.577812, 0.35158
627.70469997400005013, -0.00271184, -0.00116467, -0.000454215, 0.0153338, 0.576839, 0.351431
627.7380162739999605, -0.00271037, -0.00116012, -0.000449104, 0.0153086, 0.572911, 0.351269
627.77133263999996871, -0.00271095, -0.00115494, -0.000445478, 0.0152507, 0.572194, 0.350599
627.80464954499996111, -0.00270735, -0.00115233, -0.000451594, 0.0153271, 0.564756, 0.352307
627.83796527799995602, -0.00270462, -0.00114866, -0.00044792, 0.0153779, 0.555153, 0.354154
627.87128164000000652, -0.00270248, -0.00115118, -0.000449855, 0.0153779, 0.554828, 0.353986
627.90459791700004644, -0.00269751, -0.00115836, -0.000456987, 0.0153831, 0.55188, 0.353546
627.9379143070000282, -0.0026962, -0.00115889, -0.000460776, 0.0151975, 0.549006, 0.352417
627.97123064499999145, -0.00268834, -0.00116535, -0.00046513, 0.0152344, 0.543668, 0.352645
628.00454697400004989, -0.00268561, -0.00116233, -0.000455773, 0.0153641, 0.538739, 0.35235
628.03786327800003164, -0.0026947, -0.00116406, -0.000454517, 0.0153837, 0.541201, 0.351554
628.07132958299996517, -0.00269857, -0.00116707, -0.000450479, 0.0153403, 0.542872, 0.350805
628.10464597400005005, -0.00268733, -0.00116105, -0.000446043, 0.0154846, 0.540533, 0.350939
628.13796227399996042, -0.00268495, -0.00116304, -0.000440274, 0.0153052, 0.539656, 0.350535
628.17127861200003736, -0.00268632, -0.00116609, -0.000444831, 0.0150827, 0.539799, 0.350234
628.2045949449999398, -0.00268159, -0.00116639, -0.000447855, 0.014992, 0.540167, 0.350162
628.2379113069999903, -0.00267739, -0.00116523, -0.000454744, 0.0149106, 0.539494, 0.350167
628.27122760700001436, -0.00267905, -0.00117423, -0.000456127, 0.0146613, 0.539739, 0.349837
628.30454397400001199, -0.00266886, -0.0011671, -0.000464501, 0.0145823, 0.539066, 0.349586
628.33786030700002811, -0.0026616, -0.00115706, -0.000469511, 0.0145504, 0.538246, 0.34956
628.37117664000004424, -0.00266094, -0.00116074, -0.000472022, 0.0143293, 0.538473, 0.34881
628.40464294499997777, -0.00266109, -0.00118528, -0.000474559, 0.0140699, 0.539594, 0.347675
628.43795930700002828, -0.00265823, -0.00119376, -0.000477331, 0.013853, 0.540137, 0.346178
628.47127565899995716, -0.0026618, -0.0011925, -0.000480141, 0.0137563, 0.540097, 0.344879
628.50459194500001558, -0.00266202, -0.00119057, -0.000480791, 0.0136885, 0.539668, 0.343887
628.5379083069999524, -0.00266702, -0.00119718, -0.000484067, 0.0136498, 0.538563, 0.343428
628.57122460699997646, -0.00266586, -0.00118783, -0.000493295, 0.0138054, 0.537073, 0.343343
628.60454094499993971, -0.00266852, -0.00117723, -0.000497755, 0.0138044, 0.536304, 0.341865
628.63785730699999021, -0.00267424, -0.0011656, -0.000502195, 0.0138473, 0.535425, 0.341062
628.67117360700001427, -0.00267994, -0.00116764, -0.00050416, 0.0138166, 0.53484, 0.340625
628.7044899740000119, -0.00268242, -0.00115938, -0.000503794, 0.0140136, 0.532237, 0.34136
628.73780630700002803, -0.00268236, -0.00115247, -0.000504676, 0.0141631, 0.531244, 0.34173
628.7712726400000065, -0.00268205, -0.00114836, -0.000504468, 0.0142242, 0.529706, 0.342194
628.80458894499997768, -0.00268122, -0.00114611, -0.000505154, 0.0142308, 0.528872, 0.342231
628.83790527799999381, -0.00268157, -0.00114652, -0.000502511, 0.0141676, 0.528503, 0.342198
628.87122165499999937, -0.00268291, -0.00114574, -0.000495964, 0.0141028, 0.527773, 0.342142
628.90453797400004987, -0.00268418, -0.00114357, -0.000491315, 0.0140727, 0.527709, 0.342043
628.93785430699995231, -0.00268645, -0.00113841, -0.000488297, 0.0141468, 0.526444, 0.342153
628.97117060699997637, -0.00268452, -0.00111412, -0.00048973, 0.0143562, 0.522793, 0.342753
629.004486973999974, -0.00268477, -0.00109772, -0.000488995, 0.0144632, 0.520842, 0.343001
629.03780330699999013, -0.00268648, -0.00108502, -0.000487242, 0.0145331, 0.519371, 0.342976
629.07111960700001418, -0.00269125, -0.00107816, -0.000482464, 0.0145235, 0.518636, 0.342247
629.10458597399997416, -0.00269414, -0.00106462, -0.000477873, 0.0145449, 0.517516, 0.341731
629.13790227399999822, -0.00270746, -0.00105794, -0.000473558, 0.0144474, 0.5178, 0.340502
629.17121864000000642, -0.00270947, -0.00106103, -0.000473066, 0.0144466, 0.517991, 0.340726
629.20453497400001197, -0.00271545, -0.0010693, -0.000473151, 0.0143843, 0.51849, 0.340483
629.23785127400003603, -0.0027163, -0.00107096, -0.000475902, 0.0144755, 0.517465, 0.341784
629.27116764000004423, -0.00271139, -0.00106879, -0.000474413, 0.0145479, 0.517158, 0.341668
629.30448397400004978, -0.00271115, -0.00106855, -0.000472951, 0.0146206, 0.51614, 0.342007
629.33780030699995223, -0.00271804, -0.00107334, -0.000473128, 0.0145934, 0.515073, 0.342396
629.37111660699997628, -0.00272269, -0.00107409, -0.00046897, 0.0145424, 0.514842, 0.34211
629.40443293999999241, -0.0027328, -0.00107321, -0.000463632, 0.0143822, 0.514239, 0.341909
629.43774930699999004, -0.00273773, -0.00107863, -0.000456158, 0.0144242, 0.513146, 0.342597
629.47121560699997644, -0.0027355, -0.0010768, -0.000448676, 0.0146275, 0.513424, 0.343045
629.50453197299998465, -0.00273973, -0.00108674, -0.000442779, 0.0149906, 0.513265, 0.344466
629.53784827799995583, -0.00274138, -0.00110315, -0.00044162, 0.0150978, 0.510828, 0.345521
629.57116460700001426, -0.00274157, -0.00111222, -0.000438899, 0.0149154, 0.508763, 0.344903
629.60448097300002246, -0.00273739, -0.00111142, -0.000436046, 0.0147338, 0.508369, 0.343781
629.63779727300004652, -0.00273877, -0.00110148, -0.000422493, 0.0143759, 0.509886, 0.340806
629.67111360700005207, -0.00274269, -0.00109744, -0.000410514, 0.0141436, 0.510807, 0.338689
629.70442994500001532, -0.00274581, -0.00107638, -0.000404031, 0.0134853, 0.511374, 0.335492
629.73774627299997064, -0.00274406, -0.00107441, -0.000412419, 0.013061, 0.510541, 0.334238
629.77106263999996827, -0.00273852, -0.00108021, -0.000422287, 0.0129638, 0.510613, 0.334361
629.80452898299995468, -0.00273978, -0.00108113, -0.000418984, 0.0131215, 0.510378, 0.33504
629.83784524500003954, -0.00273266, -0.00107975, -0.000426019, 0.0131661, 0.509049, 0.335812
629.87116161200003717, -0.00271839, -0.00107217, -0.000439808, 0.0134082, 0.507908, 0.337243
629.9044779450000533, -0.00271595, -0.00106892, -0.000442812, 0.0135701, 0.507617, 0.3378
629.93779433099996368, -0.00271288, -0.00106061, -0.00043904, 0.0133807, 0.507114, 0.337251
629.97111064000000624, -0.00271534, -0.00105969, -0.000439, 0.0132465, 0.506681, 0.336935
630.00442697300002237, -0.00270952, -0.00106445, -0.000448304, 0.0128253, 0.504947, 0.336167
630.03774330700002793, -0.00270534, -0.00108151, -0.000463607, 0.0125091, 0.504333, 0.335347
630.07105961100000968, -0.0027042, -0.00108451, -0.00046758, 0.0126238, 0.50467, 0.33546
630.10437593999995443, -0.00270391, -0.00108452, -0.000467714, 0.0128499, 0.505269, 0.335771
630.13784230700002809, -0.00270309, -0.00108319, -0.000463349, 0.0130066, 0.505626, 0.336104
630.17115864000004422, -0.0026992, -0.00108474, -0.000460298, 0.012748, 0.504576, 0.335767
630.20447497299994666, -0.00269655, -0.00108322, -0.00046059, 0.012688, 0.504353, 0.335575
630.23779130699995221, -0.00269665, -0.00109025, -0.000464506, 0.0127552, 0.504762, 0.335316
630.27110760699997627, -0.00269819, -0.00108937, -0.000468105, 0.0128774, 0.505177, 0.334971
630.3044239399999924, -0.00269735, -0.00109789, -0.000474722, 0.0128293, 0.50499, 0.334202
630.33774030699999003, -0.00269643, -0.00109454, -0.000487277, 0.0130412, 0.505507, 0.333366
630.37105661099997178, -0.00269596, -0.00110558, -0.000510727, 0.0132297, 0.505681, 0.333167
630.40437297300002228, -0.00269773, -0.00110718, -0.00052549, 0.0134094, 0.506083, 0.332741
630.43768930700002784, -0.00269976, -0.00110903, -0.000527592, 0.0136326, 0.506208, 0.332542
630.47100564000004397, -0.00269629, -0.00111439, -0.000540106, 0.0138861, 0.506687, 0.332407
630.50447194000003037, -0.00269281, -0.00111143, -0.000546574, 0.0140248, 0.506841, 0.332219
630.537788307000028, -0.00268955, -0.0011137, -0.00055888, 0.0141778, 0.507013, 0.331979
630.57110464000004413, -0.00268755, -0.00111724, -0.000569086, 0.0142901, 0.50694, 0.331769
630.60442097299994657, -0.0026886, -0.00111064, -0.000569333, 0.0144372, 0.50661, 0.331566
630.63773727800003144, -0.00268894, -0.00111275, -0.000570496, 0.014378, 0.506882, 0.331533
630.67105397299997094, -0.00269077, -0.00110985, -0.000569007, 0.0143857, 0.506585, 0.331612
630.70436997299998438, -0.00269484, -0.00111119, -0.000560516, 0.0142677, 0.506935, 0.331462
630.73768630699998994, -0.00269308, -0.00111648, -0.000567021, 0.0141711, 0.506972, 0.3314
630.77100264000000607, -0.00269472, -0.00111824, -0.000565929, 0.0140685, 0.507545, 0.33101
630.80431894499997725, -0.00269552, -0.00111446, -0.000554923, 0.0140579, 0.507664, 0.330812
630.83778527799995572, -0.00269048, -0.00111066, -0.000558462, 0.0140925, 0.507461, 0.330767
630.87110161099997185, -0.00269089, -0.00111204, -0.000551738, 0.0139924, 0.508261, 0.330032
630.90441794000003028, -0.00269139, -0.00111331, -0.000548533, 0.0139933, 0.508464, 0.329742
630.93773427300004641, -0.0026911, -0.00111424, -0.000546811, 0.0140566, 0.508073, 0.329836
630.97105064000004404, -0.00269054, -0.00112157, -0.000553682, 0.0139948, 0.508214, 0.329759
631.00436693999995441, -0.00268536, -0.00112159, -0.000558946, 0.0141162, 0.50784, 0.330138
631.03767980800000714, -0.002685, -0.00112309, -0.000557177, 0.0141564, 0.507884, 0.330174
631.07099227699995936, -0.00268403, -0.00112376, -0.000557883, 0.0142198, 0.507675, 0.330492
631.10430477900001733, -0.00268161, -0.00112313, -0.000562671, 0.0143528, 0.508236, 0.330321
631.13761721900004886, -0.00268688, -0.00112529, -0.000562096, 0.0143366, 0.508997, 0.329871
631.17092968299994027, -0.00269267, -0.00113462, -0.000563114, 0.0141894, 0.509221, 0.329332
631.2043922200000452, -0.00269578, -0.00113872, -0.0005624, 0.0140444, 0.509179, 0.328882
631.2377046369999789, -0.00269887, -0.00114563, -0.000559856, 0.0138405, 0.509573, 0.327902
631.27101707700001043, -0.00270753, -0.00114973, -0.000543758, 0.0137423, 0.510158, 0.326953
631.30432995900002879, -0.00271378, -0.00115613, -0.000534642, 0.0135754, 0.510035, 0.326112
631.33764200899997832, -0.00271721, -0.00115946, -0.000531592, 0.0134701, 0.509503, 0.325995
631.37095451100003629, -0.00271647, -0.00114534, -0.000527854, 0.0138053, 0.509732, 0.327015
631.40426691799996206, -0.002722, -0.00114934, -0.000523475, 0.0136345, 0.509862, 0.325821
631.43757941499995923, -0.00272799, -0.00117172, -0.000524523, 0.0131727, 0.5093, 0.324504
631.4708919170000172, -0.00272686, -0.00117662, -0.000529144, 0.0130701, 0.508986, 0.324437
631.50420438599996942, -0.00272183, -0.00117606, -0.000532402, 0.013067, 0.508105, 0.325229
631.53766683699996065, -0.00271768, -0.00117545, -0.000537742, 0.0130829, 0.507175, 0.32608
631.57097924400000011, -0.00271352, -0.00116394, -0.000537419, 0.0133289, 0.507713, 0.326718
631.6042917459999444, -0.00271156, -0.00114429, -0.00053233, 0.0136782, 0.508586, 0.327084
631.63760421400002087, -0.00271607, -0.00114104, -0.000526543, 0.0136315, 0.507526, 0.327294
631.67091671100001804, -0.00271766, -0.00113208, -0.000520119, 0.0137799, 0.507733, 0.327355
631.70422917999997026, -0.00272102, -0.00111847, -0.000513865, 0.0139508, 0.508144, 0.327316
631.73754164900003616, -0.0027236, -0.00111433, -0.000512344, 0.0139879, 0.50826, 0.327272
631.77085419800005184, -0.0027225, -0.00110895, -0.000514891, 0.0140577, 0.508371, 0.327262
631.80416658599995117, -0.00272093, -0.00108645, -0.00050852, 0.0143001, 0.509505, 0.326378
631.83747905500001707, -0.00272422, -0.00108133, -0.000497307, 0.014436, 0.510524, 0.325774
631.87094147699997393, -0.00272476, -0.00108683, -0.000492526, 0.0143538, 0.510615, 0.325856
631.90425394099997902, -0.00272554, -0.0010928, -0.000492359, 0.0142695, 0.510408, 0.326114
631.93756641400000262, -0.00272899, -0.00109391, -0.000487137, 0.0142236, 0.510369, 0.326004
631.97087891199998921, -0.00273409, -0.00109583, -0.000482742, 0.0141801, 0.510248, 0.326151
632.00419137999995201, -0.00273515, -0.00109743, -0.00048199, 0.0141483, 0.510059, 0.325963
632.03750727900001039, -0.00273582, -0.00109817, -0.000481369, 0.0141584, 0.509883, 0.326226
632.07082360599997628, -0.0027359, -0.00109878, -0.000483187, 0.0141282, 0.509181, 0.32688
632.10413997299997391, -0.00273285, -0.00108777, -0.000483705, 0.014144, 0.507838, 0.327334
632.13745787300001666, -0.0027362, -0.00107427, -0.000479009, 0.0142192, 0.507606, 0.327412
632.17077263999999559, -0.00273609, -0.0010779, -0.000478009, 0.014085, 0.507519, 0.327525
632.20408894499996677, -0.0027311, -0.00108185, -0.000482205, 0.0140064, 0.506792, 0.328111
632.23755527799994525, -0.00273195, -0.00107239, -0.000477631, 0.0140163, 0.50589, 0.32835
632.27087163999999575, -0.00273767, -0.00106945, -0.000476357, 0.0141203, 0.506176, 0.32845
632.30418794000001981, -0.00273653, -0.00106905, -0.000480134, 0.0142127, 0.50702, 0.328115
632.33750430600002801, -0.00273884, -0.00107238, -0.00048098, 0.0142675, 0.507353, 0.328047
632.37082064000003356, -0.00274005, -0.00107321, -0.000481385, 0.0142381, 0.507353, 0.327906
632.40413694400001532, -0.00274167, -0.00106416, -0.000478766, 0.0141894, 0.50714, 0.327281
632.43745327800002087, -0.00273826, -0.00106065, -0.000478765, 0.0141429, 0.506158, 0.327636
632.470769611000037, -0.00272946, -0.00103988, -0.000478112, 0.0141977, 0.505016, 0.327179
632.50408638700002939, -0.00273011, -0.00102754, -0.000473623, 0.014199, 0.504989, 0.326131
632.537402277999945, -0.00273618, -0.00103064, -0.000467746, 0.0141553, 0.505652, 0.325723
632.57071860600001401, -0.00274133, -0.00103149, -0.000461086, 0.0141569, 0.506806, 0.325647
632.60418497299997398, -0.00274619, -0.00102764, -0.000454343, 0.0142265, 0.508047, 0.325065
632.63750130599999011, -0.00275082, -0.00102019, -0.000442538, 0.0142691, 0.509701, 0.323929
632.67081763999999566, -0.00276114, -0.00101941, -0.000430932, 0.0142733, 0.509372, 0.323359
632.70413397300001179, -0.00276577, -0.00101999, -0.000427595, 0.0141476, 0.510226, 0.323054
632.73745027300003585, -0.00277196, -0.00104254, -0.000427621, 0.0139095, 0.510374, 0.322877
632.7707666109999991, -0.00278158, -0.00106608, -0.000423678, 0.013623, 0.510399, 0.322475
632.80408297300004961, -0.00278249, -0.00109017, -0.000425077, 0.0133078, 0.5117, 0.321287
632.83739927800002079, -0.00279193, -0.00112545, -0.000424085, 0.0130237, 0.513598, 0.320366
632.8707156399999576, -0.00279093, -0.00112882, -0.000422623, 0.0129206, 0.512847, 0.32056
632.90403197299997373, -0.00279517, -0.00112439, -0.00042005, 0.0130648, 0.513649, 0.320735
632.93749827299996014, -0.00279521, -0.00113, -0.000416595, 0.0129403, 0.51365, 0.320412
632.97081461100003708, -0.00280068, -0.00113161, -0.000412115, 0.0127989, 0.513092, 0.320403
633.00413097299997389, -0.00280453, -0.00113395, -0.000416984, 0.0127337, 0.512851, 0.320481
633.03744727299999795, -0.00281102, -0.00113764, -0.000421895, 0.0127564, 0.513602, 0.320514
633.07076363999999558, -0.0028088, -0.00112964, -0.000435509, 0.0127231, 0.512865, 0.320683
633.10407997300001171, -0.00279968, -0.00112678, -0.000448159, 0.0127744, 0.512633, 0.32068
633.13739630600002783, -0.00279378, -0.00113487, -0.000449247, 0.0127853, 0.512736, 0.320608
633.17071264000003339, -0.00278933, -0.00113221, -0.000452117, 0.0127863, 0.512621, 0.320542
633.20402894400001514, -0.00278004, -0.00112823, -0.000452431, 0.0128511, 0.51285, 0.320162
633.23734530599995196, -0.00277118, -0.00113351, -0.000451969, 0.0128002, 0.512604, 0.320135
633.27081160600005205, -0.00276996, -0.00114517, -0.000462493, 0.012807, 0.512592, 0.319701
633.30412791100002323, -0.00276067, -0.00115, -0.000469423, 0.0127674, 0.51244, 0.318781
633.33744424899998648, -0.00276259, -0.00115415, -0.000470934, 0.0127442, 0.512312, 0.318332
633.37076060599997618, -0.00276409, -0.00115718, -0.000473569, 0.0127135, 0.512255, 0.317512
633.40407693999998173, -0.00276448, -0.00116006, -0.000475642, 0.012702, 0.512045, 0.317253
633.43739327799994498, -0.00275827, -0.00116413, -0.000482671, 0.0127671, 0.512296, 0.316139
633.47070960600001399, -0.00275363, -0.00117095, -0.000485626, 0.0128027, 0.512784, 0.31405
633.50402597300001162, -0.00275401, -0.00119665, -0.000486209, 0.01288, 0.512813, 0.312803
633.53734225400000923, -0.00275572, -0.00119544, -0.000484769, 0.0128779, 0.512622, 0.312492
633.5706586400000333, -0.00276316, -0.00119474, -0.000489724, 0.0128814, 0.512241, 0.311922
633.60397494400001506, -0.00276801, -0.00119876, -0.00048987, 0.0128742, 0.511558, 0.311462
633.63744131999999354, -0.00277563, -0.00118803, -0.000483897, 0.012907, 0.511619, 0.311131
633.67075764000003346, -0.0027777, -0.0011898, -0.000482172, 0.0128955, 0.51129, 0.311083
633.70407397300004959, -0.00278348, -0.00118983, -0.000478025, 0.0128974, 0.510938, 0.310759
633.73739030599995203, -0.00279065, -0.00118267, -0.000474277, 0.0129067, 0.510434, 0.31034
633.77070660599997609, -0.00280037, -0.001186, -0.000471533, 0.012855, 0.51105, 0.310085
633.80402297299997372, -0.00280191, -0.00118485, -0.000475852, 0.0128002, 0.512021, 0.31022
633.83733926800005065, -0.00280686, -0.00117211, -0.000483692, 0.0127937, 0.512225, 0.310406
633.87065563900000598, -0.00280794, -0.00117132, -0.000482085, 0.0127838, 0.512272, 0.310321
633.90397194399997716, -0.00280746, -0.00117864, -0.000483126, 0.0128054, 0.512121, 0.310294
633.93728827300003559, -0.0028087, -0.00118855, -0.00048403, 0.0128463, 0.511903, 0.310329
633.97075783000002502, -0.00280973, -0.00119654, -0.000482177, 0.0129067, 0.511975, 0.309965
634.00407097300001169, -0.0028107, -0.00119265, -0.000479984, 0.0128906, 0.512204, 0.309355
634.03738730600002782, -0.0028174, -0.00117314, -0.000479152, 0.0127352, 0.513496, 0.309261
634.07070363900004395, -0.00282414, -0.00117367, -0.000481103, 0.0126287, 0.514693, 0.309279
634.1040199730000495, -0.00284673, -0.00117202, -0.000477317, 0.0124869, 0.515395, 0.308782
634.13733627299995987, -0.00287815, -0.00118509, -0.000471836, 0.0124291, 0.516051, 0.308412
634.17065261100003681, -0.00290816, -0.0012288, -0.000472725, 0.0123783, 0.515869, 0.307836
634.20396894400005294, -0.00291828, -0.00124288, -0.000470348, 0.012319, 0.515903, 0.307075
634.23728527299999769, -0.00291611, -0.00125611, -0.000471261, 0.0123178, 0.515357, 0.306835
634.27060163900000589, -0.00294165, -0.00127384, -0.000471541, 0.0121509, 0.51403, 0.307196
634.30391797300001144, -0.00297212, -0.00131508, -0.000478071, 0.0118732, 0.511497, 0.307893
634.33738427799994497, -0.00295969, -0.00132463, -0.000480379, 0.011927, 0.511954, 0.307523
634.37070063900000605, -0.00295356, -0.00134316, -0.000486269, 0.0115754, 0.508932, 0.307757
634.40401694399997723, -0.00298799, -0.00136227, -0.000491007, 0.0113105, 0.505428, 0.309483
634.43733330600002773, -0.00299362, -0.00137152, -0.000494878, 0.0113376, 0.505196, 0.309887
634.47064961099999891, -0.00300316, -0.00139297, -0.000500456, 0.011701, 0.507436, 0.309979
634.50396594400001504, -0.00300377, -0.00141625, -0.000500518, 0.0119453, 0.509182, 0.309085
634.53728230599995186, -0.00299692, -0.00143977, -0.000501216, 0.012022, 0.508794, 0.309385
634.57059861100003673, -0.00299286, -0.00146734, -0.000500412, 0.0121437, 0.508667, 0.309418
634.60391494400005286, -0.00299523, -0.00147789, -0.000495947, 0.0118256, 0.507894, 0.30884
634.63723130599998967, -0.00296971, -0.00147058, -0.000502507, 0.011469, 0.507036, 0.30917
634.67069761100003689, -0.0029653, -0.00145506, -0.000508305, 0.0113543, 0.506488, 0.309183
634.70401393899999221, -0.00296102, -0.00143694, -0.000509828, 0.0111969, 0.506137, 0.309318
634.73733030599998983, -0.00294725, -0.0014394, -0.00051704, 0.0110734, 0.506743, 0.309572
634.77064657699997952, -0.00294347, -0.00143935, -0.000519677, 0.0109354, 0.507286, 0.30945
634.80396297300001152, -0.00294152, -0.0014422, -0.000519684, 0.0107611, 0.507703, 0.309269
634.83728101999997762, -0.00294476, -0.0014364, -0.00052118, 0.0107837, 0.508118, 0.309286
634.8705956060000517, -0.00295009, -0.00142465, -0.000523196, 0.0107268, 0.50797, 0.309275
634.90391197300004933, -0.00296318, -0.00142381, -0.000529347, 0.0108376, 0.508357, 0.309298
634.93722827700003108, -0.00296364, -0.00144442, -0.000541626, 0.011056, 0.508116, 0.309282
634.9705446389999679, -0.0029633, -0.00145652, -0.000538968, 0.0111646, 0.508079, 0.309194
635.00386093899999196, -0.00295928, -0.00146822, -0.000542933, 0.0112698, 0.508383, 0.30903
635.03732730599995193, -0.00296749, -0.00146819, -0.000542904, 0.0112796, 0.508305, 0.308926
635.0706436110000368, -0.00298104, -0.00147748, -0.00053139, 0.0113098, 0.508478, 0.308678
635.10395994400005293, -0.00298303, -0.0014801, -0.000529894, 0.0113654, 0.508394, 0.308459
635.13727627699995537, -0.00297908, -0.00148731, -0.000527932, 0.01145, 0.508257, 0.308075
635.17059261099996093, -0.00298999, -0.00148093, -0.000524591, 0.0115116, 0.508141, 0.307745
635.20390897300001143, -0.00299672, -0.00146936, -0.000521006, 0.0115701, 0.508165, 0.307371
635.23722530600002756, -0.00300077, -0.00146984, -0.000518087, 0.0115865, 0.508175, 0.307223
635.27054163900004369, -0.00300975, -0.00146665, -0.00051622, 0.0116079, 0.507892, 0.307292
635.30385793899995406, -0.00301432, -0.00147044, -0.000516164, 0.0116179, 0.507534, 0.307378
635.337174277000031, -0.00301863, -0.00148664, -0.000519267, 0.0115544, 0.507684, 0.307511
635.37064060600005178, -0.00302246, -0.00149876, -0.000521095, 0.0114727, 0.507137, 0.308076
635.4039569730000494, -0.00302332, -0.00150676, -0.00052508, 0.0114294, 0.506883, 0.308383
635.43727327700003116, -0.00302264, -0.00150513, -0.000529398, 0.0115727, 0.507676, 0.308192
635.47058963899996797, -0.00302092, -0.00149083, -0.000526286, 0.0116992, 0.508071, 0.307718
635.50390594400005284, -0.00301942, -0.00148875, -0.000526136, 0.0117356, 0.508469, 0.307339
635.53722230599998966, -0.00301955, -0.00149401, -0.000528119, 0.0117237, 0.509507, 0.306561
635.57053859200004808, -0.00302133, -0.00149121, -0.000523878, 0.0117698, 0.510091, 0.305663
635.60385493900002984, -0.00302717, -0.00148753, -0.000522384, 0.0118059, 0.509503, 0.305837
635.6371712730000354, -0.00303688, -0.0014934, -0.000525013, 0.0118397, 0.508392, 0.306998
635.67048760600005153, -0.0030435, -0.00150672, -0.000527906, 0.0117311, 0.50782, 0.306735
635.70380391499998041, -0.00306205, -0.00153237, -0.000529828, 0.0116084, 0.50616, 0.306779
635.73727027699999326, -0.00307305, -0.00155591, -0.000532594, 0.0116658, 0.505938, 0.307305
635.77058661099999881, -0.00308079, -0.00157551, -0.00053428, 0.0116333, 0.505361, 0.30725
635.80390297300004931, -0.00307288, -0.0015965, -0.000535214, 0.0118625, 0.507375, 0.30673
635.83721930599995176, -0.00306187, -0.00162157, -0.000539506, 0.0120588, 0.50865, 0.30671
635.87053558699994937, -0.00305577, -0.00164827, -0.000541893, 0.012029, 0.505982, 0.307741
635.90385193899999194, -0.00304549, -0.00167134, -0.000545281, 0.0122199, 0.504842, 0.309094
635.9371682729999975, -0.00304677, -0.00168408, -0.000545296, 0.0123709, 0.505295, 0.308953
635.97048460600001363, -0.00305538, -0.00169702, -0.000539495, 0.0125686, 0.505722, 0.309028
636.00380097300001125, -0.00305584, -0.00172306, -0.000542859, 0.0128238, 0.504855, 0.310018
636.03711727699999301, -0.00303827, -0.0016962, -0.000548576, 0.0124573, 0.503797, 0.309432
636.07058361099996091, -0.00303838, -0.00168689, -0.000542563, 0.0122914, 0.505076, 0.308375
636.10389993900002992, -0.00304445, -0.00169093, -0.000538884, 0.012218, 0.505427, 0.307643
636.13721627200004605, -0.00303188, -0.00168339, -0.000542176, 0.0122544, 0.506158, 0.3082
636.1705326439999908, -0.00301963, -0.00168297, -0.000552946, 0.0121666, 0.504695, 0.308727
636.20384897199994612, -0.00302658, -0.00169044, -0.000564461, 0.0122205, 0.505243, 0.308604
636.23716530599995167, -0.00303427, -0.00169182, -0.000568362, 0.0123168, 0.504512, 0.309101
636.2704816389999678, -0.00304522, -0.00169155, -0.000569581, 0.0124272, 0.504299, 0.309654
636.30379793899999186, -0.0030337, -0.00166718, -0.0005718, 0.0122678, 0.50732, 0.308144
636.33711427699995511, -0.00303297, -0.00164851, -0.00057566, 0.0121412, 0.507932, 0.307459
636.37043060600001354, -0.00303387, -0.0016439, -0.000579462, 0.0120926, 0.50809, 0.30721
636.40389697199998409, -0.00303923, -0.00164523, -0.000580294, 0.0121484, 0.507938, 0.307515
636.43721330599998964, -0.00304778, -0.00164436, -0.000586707, 0.0121638, 0.507905, 0.30756
636.47052961099996082, -0.00306035, -0.00164434, -0.000593235, 0.0121816, 0.507344, 0.307769
636.5038459720000219, -0.00307228, -0.00165268, -0.000602208, 0.0122922, 0.504452, 0.309049
636.53716226799997457, -0.00308431, -0.00164735, -0.000606581, 0.0123116, 0.503834, 0.309313
636.57047861099999864, -0.00309804, -0.00164071, -0.000602495, 0.012326, 0.503063, 0.309607
636.60379494400001477, -0.00309935, -0.00164146, -0.000604242, 0.0123541, 0.501623, 0.310059
636.63711124400003882, -0.00310187, -0.00164257, -0.000613307, 0.0123714, 0.500743, 0.310352
636.67042763899996771, -0.00311184, -0.00163745, -0.000615123, 0.0123879, 0.50023, 0.310624
636.70374397199998384, -0.00311586, -0.00163892, -0.000615192, 0.0123911, 0.49982, 0.310757
636.7370603059999894, -0.00311533, -0.00164511, -0.000614881, 0.0123887, 0.498064, 0.310993
636.7705266059999758, -0.00311801, -0.00164998, -0.000611535, 0.012375, 0.497191, 0.310956
636.803842971999984, -0.00312392, -0.00165544, -0.000608954, 0.0124061, 0.500112, 0.310475
636.83715927200000806, -0.00312802, -0.00166217, -0.00060757, 0.012423, 0.503251, 0.309889
636.87047563900000569, -0.00312698, -0.00165765, -0.000606719, 0.0124164, 0.504736, 0.309477
636.90379197200002181, -0.00313313, -0.00165765, -0.000609971, 0.0124149, 0.506633, 0.309085
636.93710830600002737, -0.00312934, -0.00165323, -0.000612286, 0.0123804, 0.505898, 0.309067
636.97042461000000912, -0.00313019, -0.00164809, -0.000609237, 0.0123207, 0.504637, 0.308893
637.00374097199994594, -0.00313333, -0.00165021, -0.000606612, 0.0123129, 0.504676, 0.308718
637.0370573059999515, -0.00313426, -0.0016475, -0.000607864, 0.0122669, 0.50176, 0.309002
637.07037363899996762, -0.00313414, -0.00164752, -0.000603888, 0.0122167, 0.49947, 0.308975
637.10383993899995403, -0.00313789, -0.00164666, -0.000601081, 0.0121854, 0.496718, 0.309408
637.13715630599995166, -0.00314406, -0.00163652, -0.000603339, 0.0121034, 0.492357, 0.309876
637.1704726100000471, -0.00315279, -0.00163689, -0.000604264, 0.0120586, 0.490394, 0.310078
637.20378897199998391, -0.0031568, -0.00163705, -0.000604827, 0.0119755, 0.489345, 0.309328
637.23710530599998947, -0.00316037, -0.00163671, -0.000604051, 0.0119574, 0.490683, 0.30837
637.27042170100003204, -0.00316223, -0.00163621, -0.000602024, 0.0119637, 0.490961, 0.308044
637.30373793900002966, -0.00316689, -0.0016427, -0.000603564, 0.0118959, 0.494039, 0.306052
637.33705427200004578, -0.00317218, -0.00165649, -0.000608611, 0.0117897, 0.498225, 0.304148
637.37037063900004341, -0.0031762, -0.00167143, -0.000619197, 0.0116285, 0.502052, 0.302359
637.40368697199994585, -0.00318219, -0.00168442, -0.000626965, 0.0115448, 0.505869, 0.300785
637.43700327199996991, -0.00318983, -0.00170023, -0.000629834, 0.0114493, 0.510318, 0.298847
637.47046963900004357, -0.00319473, -0.00170635, -0.000627316, 0.0114125, 0.512659, 0.298193
637.50378594400001475, -0.0031958, -0.00170024, -0.000620689, 0.0113171, 0.514328, 0.297178
637.53710227700003088, -0.00319273, -0.00170066, -0.000621836, 0.0111922, 0.515873, 0.29611
637.5704186389999677, -0.0031936, -0.00169941, -0.000619004, 0.0111132, 0.51632, 0.295632
637.60373494400005256, -0.00319819, -0.00170031, -0.000617694, 0.0110968, 0.516488, 0.295797
637.63705138199998146, -0.00319824, -0.001708, -0.000624208, 0.0111981, 0.518025, 0.295803
637.67036760600001344, -0.00319815, -0.00170637, -0.000622631, 0.0112745, 0.518995, 0.295788
637.70368394399997669, -0.00319907, -0.00170732, -0.000621499, 0.0110572, 0.51783, 0.295639
637.73700030600002719, -0.00320176, -0.00170561, -0.000619434, 0.0109655, 0.51756, 0.29578
637.77031663900004332, -0.00320244, -0.00170637, -0.000619011, 0.0109542, 0.517685, 0.295857
637.8037829720000218, -0.00320004, -0.0017097, -0.000623154, 0.0109358, 0.517881, 0.295843
637.83709930600002735, -0.00319981, -0.00171318, -0.000628294, 0.010951, 0.518159, 0.29574
637.87041561000000911, -0.00319894, -0.00171294, -0.000629623, 0.0109767, 0.518333, 0.295621
637.90373197199994593, -0.0031953, -0.00170374, -0.000628512, 0.0110939, 0.520128, 0.294365
637.93704827199996998, -0.00319578, -0.00170609, -0.000632066, 0.0111378, 0.521309, 0.293566
637.97036463899996761, -0.00319413, -0.00170183, -0.000632454, 0.0112174, 0.523107, 0.292086
638.00368093400004454, -0.00318754, -0.00169195, -0.000635864, 0.0113346, 0.52572, 0.289765
638.03699724399996285, -0.0031739, -0.00168217, -0.000643071, 0.011436, 0.527942, 0.287624
638.07031363900000542, -0.00316923, -0.00167617, -0.000649908, 0.0115855, 0.531631, 0.284266
638.10362993900002948, -0.00316335, -0.00166878, -0.000656419, 0.0116528, 0.533406, 0.282528
638.13694630600002711, -0.00315978, -0.00165236, -0.00065838, 0.0118669, 0.537412, 0.279367
638.17041263900000558, -0.00315787, -0.00164819, -0.000658308, 0.0119374, 0.538977, 0.277872
638.20372891499994239, -0.00315883, -0.00164164, -0.00065415, 0.0120064, 0.541095, 0.275572
638.23704527699999289, -0.00316075, -0.00163663, -0.000652451, 0.012095, 0.542778, 0.274023
638.2703616390000434, -0.00316157, -0.00162599, -0.000651877, 0.012243, 0.545511, 0.272202
638.30367793899995377, -0.00316237, -0.00160946, -0.000648227, 0.0123978, 0.548849, 0.269626
638.3369942719999699, -0.00316152, -0.00159471, -0.000648087, 0.0125536, 0.55214, 0.267101
638.37031058599995959, -0.00315829, -0.00158022, -0.000650753, 0.0126806, 0.55489, 0.264551
638.40362693899999158, -0.00314958, -0.00156174, -0.000655528, 0.0128576, 0.558368, 0.261247
638.43694327200000771, -0.00315076, -0.00156028, -0.000655609, 0.0128663, 0.558549, 0.261084
638.47025963900000534, -0.00315262, -0.00155793, -0.000652836, 0.0128931, 0.559064, 0.260715
638.50372594400005255, -0.00315497, -0.00155417, -0.000652026, 0.0129345, 0.55967, 0.26029
638.53704227699995499, -0.00316941, -0.00154063, -0.000647259, 0.0130303, 0.561235, 0.259163
638.5703586390000055, -0.00317757, -0.0015362, -0.000641709, 0.0130779, 0.561961, 0.258688
638.60367494399997668, -0.00318217, -0.00153418, -0.000636009, 0.0130744, 0.56198, 0.258622
638.63699130500003776, -0.00318141, -0.00153463, -0.000636254, 0.0130704, 0.562042, 0.258531
638.67030760499994813, -0.00318404, -0.00153963, -0.000634708, 0.0130044, 0.561727, 0.258788
638.70362397199994575, -0.0031857, -0.00153714, -0.000633477, 0.0129565, 0.561487, 0.258739
638.73694027700003062, -0.00318716, -0.00152995, -0.000632063, 0.0129171, 0.561139, 0.258599
638.77025663899996744, -0.00319682, -0.00152245, -0.00062782, 0.0128309, 0.560604, 0.258074
638.80357293899999149, -0.00319675, -0.00151358, -0.000627698, 0.0128124, 0.560093, 0.257842
638.83688930499999969, -0.0031968, -0.00150621, -0.000625305, 0.0127167, 0.559216, 0.257402
638.8703556389999676, -0.00319839, -0.0015083, -0.000621074, 0.0127526, 0.558667, 0.257369
638.90367197199998373, -0.00319752, -0.00150984, -0.000617499, 0.0127921, 0.559025, 0.25689
638.93698827699995491, -0.00319916, -0.00151443, -0.000627471, 0.0125046, 0.559156, 0.255712
638.97030463900000541, -0.00319819, -0.00151833, -0.000633358, 0.0120947, 0.558906, 0.253942
639.00362097200002154, -0.0031993, -0.00152394, -0.0006356, 0.0119599, 0.559086, 0.253287
639.03693730500003767, -0.00320212, -0.00152319, -0.000637805, 0.0117804, 0.557724, 0.25309
639.07025363900004322, -0.00320176, -0.00151487, -0.000638993, 0.0115475, 0.556387, 0.25269
639.10357280100004118, -0.00320117, -0.00150403, -0.000640269, 0.0111621, 0.552634, 0.252871
639.13688630499996179, -0.0032012, -0.00149861, -0.000640615, 0.0110474, 0.551139, 0.253261
639.17020263899996735, -0.00319904, -0.00150523, -0.000645941, 0.0110818, 0.55073, 0.253503
639.20366893899995375, -0.00319005, -0.00150909, -0.000660911, 0.0109539, 0.548356, 0.254264
639.23698527700003069, -0.00318437, -0.00150413, -0.000665833, 0.0108861, 0.54715, 0.254813
639.27030163899996751, -0.00318867, -0.00149978, -0.000661467, 0.010888, 0.547904, 0.254621
639.30361794299994926, -0.00319215, -0.00150237, -0.000661938, 0.010792, 0.547282, 0.255124
639.3369342720000077, -0.00319398, -0.00150335, -0.000661007, 0.0107438, 0.547189, 0.255286
639.37025063900000532, -0.00319945, -0.00150182, -0.000655929, 0.010715, 0.547528, 0.255092
639.40356697200002145, -0.0032032, -0.00150221, -0.000651207, 0.0107379, 0.550009, 0.253312
639.43688327200004551, -0.00319906, -0.00151091, -0.000658075, 0.0107282, 0.551745, 0.252003
639.47019957700001669, -0.00319275, -0.00152034, -0.000669426, 0.0107039, 0.551947, 0.25186
639.50351593899995351, -0.00318674, -0.00153, -0.0006827, 0.0107029, 0.552422, 0.251382
639.53698227699999279, -0.00317955, -0.0015272, -0.000688956, 0.0107828, 0.555982, 0.248292
639.57029863900004329, -0.00317763, -0.00152588, -0.000686138, 0.0107946, 0.557294, 0.247249
639.60361497199994574, -0.00316888, -0.00151742, -0.000686004, 0.0107881, 0.557456, 0.247135
639.63693130499996187, -0.00315622, -0.0015164, -0.000692499, 0.0107932, 0.558157, 0.246417
639.67024763899996742, -0.00314976, -0.00151657, -0.00069691, 0.0108088, 0.559205, 0.245396
639.70356397199998355, -0.00315224, -0.00151677, -0.000695437, 0.0107485, 0.556627, 0.247466
639.73688027699995473, -0.00314955, -0.00151974, -0.000699201, 0.0107176, 0.554672, 0.249133
639.77019660500002374, -0.00314735, -0.001523, -0.00070457, 0.0107075, 0.553642, 0.250056
639.80351294299998699, -0.003141, -0.00152611, -0.000714659, 0.0106911, 0.554438, 0.248983
639.83682930500003749, -0.00313817, -0.00152393, -0.00071917, 0.0107426, 0.557866, 0.246021
639.87014563900004305, -0.00313761, -0.00152856, -0.000720823, 0.0106842, 0.55526, 0.247874
639.90361197200002152, -0.00314122, -0.00153773, -0.000713585, 0.0106006, 0.55148, 0.250539
639.93692830500003765, -0.00314312, -0.00154567, -0.000709511, 0.0106273, 0.55372, 0.248553
639.97024460499994802, -0.00314257, -0.00154154, -0.000704465, 0.0106417, 0.554042, 0.248512
640.00356097199994565, -0.00314101, -0.00153742, -0.000708743, 0.0106142, 0.554027, 0.248403
640.03687730499996178, -0.00313964, -0.0015348, -0.000711189, 0.0106311, 0.556563, 0.246209
640.07019360499998584, -0.00313944, -0.0015258, -0.000713529, 0.0107627, 0.562573, 0.242359
640.10350993899999139, -0.00313806, -0.0015194, -0.000714051, 0.0108533, 0.565857, 0.24061
640.13682627699995464, -0.00313814, -0.00151902, -0.000713609, 0.0108683, 0.567512, 0.239245
640.17014260999997077, -0.00314012, -0.00151616, -0.000711109, 0.0109695, 0.572871, 0.235161
640.20345897200002128, -0.00314166, -0.00151472, -0.000708421, 0.0110232, 0.575176, 0.233538
640.2369252769999548, -0.00314079, -0.00151552, -0.0007058, 0.0110438, 0.575856, 0.232897
640.27024160999997093, -0.00314247, -0.00151524, -0.000702665, 0.0111249, 0.578842, 0.230733
640.30355797200002144, -0.0031432, -0.00151228, -0.000703222, 0.0111301, 0.578828, 0.231154
640.33687430500003757, -0.00314489, -0.00150543, -0.00070024, 0.0111551, 0.579717, 0.230957
640.37019060499994794, -0.00315425, -0.00150294, -0.000694006, 0.011204, 0.581418, 0.22992
640.40350697199994556, -0.0031604, -0.00150162, -0.000691735, 0.0112456, 0.583114, 0.228978
640.43682325299994318, -0.00316356, -0.00150428, -0.000693718, 0.0112469, 0.583244, 0.228998
640.47013961000004656, -0.0031651, -0.00150479, -0.000695355, 0.011356, 0.586475, 0.226683
640.5034559389999913, -0.00316745, -0.0015046, -0.00069615, 0.0113512, 0.586728, 0.226533
640.53677359999994678, -0.00316464, -0.00150329, -0.000701539, 0.0111934, 0.582714, 0.229287
640.57008872899996277, -0.003164, -0.00150052, -0.000701035, 0.0111359, 0.581469, 0.230093
640.60355494299994916, -0.00317026, -0.00151349, -0.000704871, 0.0110491, 0.579371, 0.231373
640.63687130499999967, -0.0031712, -0.00151861, -0.000707536, 0.0109815, 0.577674, 0.232445
640.67018760999997085, -0.00317554, -0.00152894, -0.000712955, 0.0109628, 0.57707, 0.232811
640.70350397200002135, -0.00317925, -0.00152679, -0.000707849, 0.0110759, 0.579004, 0.231563
640.73682027200004541, -0.00318457, -0.00153561, -0.000707421, 0.0110718, 0.579001, 0.231409
640.77013663800005361, -0.00318524, -0.00153468, -0.000707866, 0.0110817, 0.579167, 0.231273
640.80345297199994548, -0.0031847, -0.00153528, -0.000714251, 0.010897, 0.576964, 0.232656
640.83676930499996161, -0.00318436, -0.00153629, -0.000713532, 0.0108758, 0.576727, 0.232819
640.87008560499998566, -0.00318411, -0.00153665, -0.000713175, 0.010739, 0.575681, 0.233231
640.90340194299994891, -0.00318746, -0.00153842, -0.00071028, 0.01087, 0.576722, 0.232644
640.9368682770000305, -0.0031894, -0.00154183, -0.00070706, 0.0109317, 0.577331, 0.232384
640.97018463799997789, -0.0031923, -0.00153843, -0.000702002, 0.0107787, 0.576459, 0.232297
641.00350097199998345, -0.0031921, -0.00154063, -0.00070329, 0.0105998, 0.57581, 0.232507
641.03681727200000751, -0.00318942, -0.00153916, -0.000706161, 0.0104958, 0.575218, 0.232512
641.07013360999997076, -0.00318423, -0.00153185, -0.000715066, 0.0102246, 0.573154, 0.232851
641.10344997200002126, -0.00317742, -0.00152539, -0.000722378, 0.00995531, 0.571707, 0.232735
641.13676627699999244, -0.00317754, -0.0015191, -0.00072267, 0.00981426, 0.570698, 0.232813
641.1700825770000165, -0.00317619, -0.00152161, -0.000723117, 0.00981315, 0.570814, 0.232706
641.20339893799996389, -0.00317143, -0.0015169, -0.000729458, 0.00963629, 0.569512, 0.233082
641.23671530499996152, -0.0031693, -0.00151106, -0.000732328, 0.00951602, 0.568318, 0.233549
641.27003158100001201, -0.00316811, -0.00151086, -0.00073372, 0.009469, 0.568001, 0.233756
641.30349791000003279, -0.00316728, -0.00149927, -0.000733941, 0.0093873, 0.566928, 0.234366
641.33681427600004099, -0.00316343, -0.00148854, -0.000734679, 0.00942501, 0.565823, 0.235228
641.37013064300003862, -0.00316106, -0.00149049, -0.000737122, 0.00944162, 0.565588, 0.235618
641.40344694299994899, -0.00316176, -0.00149139, -0.000739217, 0.00941966, 0.565272, 0.235936
641.43676330499999949, -0.00315989, -0.0014897, -0.000738641, 0.00942099, 0.56574, 0.235393
641.47008024800004478, -0.00315486, -0.00148947, -0.000740006, 0.00943349, 0.566878, 0.234266
641.5033959429999868, -0.00315249, -0.00149062, -0.000738598, 0.00944456, 0.568038, 0.23317
641.53671227600000293, -0.00315372, -0.00148731, -0.000732827, 0.00945889, 0.568703, 0.232538
641.57002863800005343, -0.00315697, -0.00148079, -0.000733291, 0.00942828, 0.567727, 0.233283
641.6033449719999453, -0.00315613, -0.00147813, -0.000737467, 0.00940589, 0.567381, 0.233384
641.63681130500003746, -0.00315729, -0.0014734, -0.000733841, 0.00937613, 0.566693, 0.233838
641.67012757600002715, -0.00315316, -0.00147815, -0.000738644, 0.00932948, 0.566965, 0.232903
641.70344397199994546, -0.00314979, -0.00147853, -0.000738669, 0.00928346, 0.567961, 0.231202
641.7367602760000409, -0.00314404, -0.00148411, -0.000743979, 0.00927977, 0.570126, 0.228796
641.77007661000004646, -0.00314177, -0.00149495, -0.000752082, 0.00921617, 0.570856, 0.227225
641.80339297199998327, -0.00314157, -0.00150258, -0.000752129, 0.00917796, 0.571785, 0.225828
641.8367093049999994, -0.00314277, -0.00150963, -0.000750213, 0.00911569, 0.573615, 0.223152
641.8700255810000499, -0.0031473, -0.00150483, -0.000742306, 0.00903881, 0.57158, 0.224248
641.90334194299998671, -0.00315418, -0.00149091, -0.000731145, 0.00900315, 0.567231, 0.228333
641.93665827600000284, -0.00315553, -0.0014953, -0.000732109, 0.00895246, 0.564493, 0.230307
641.9699746100000084, -0.00314853, -0.00149924, -0.000740888, 0.0089341, 0.566619, 0.227619
642.00344097200002125, -0.00314493, -0.00150397, -0.000742204, 0.00893143, 0.567247, 0.226648
642.036757276000003, -0.00314721, -0.00151195, -0.00074138, 0.0088772, 0.566492, 0.226516
642.07007361000000856, -0.00315357, -0.00151837, -0.000731346, 0.0088523, 0.563626, 0.228648
642.10338997199994537, -0.00315805, -0.00152391, -0.000722847, 0.00888058, 0.562887, 0.229597
642.13670627600004082, -0.00316439, -0.00152717, -0.000717393, 0.00887168, 0.563056, 0.229318
642.17002266700001201, -0.00316675, -0.00152482, -0.000720269, 0.00881256, 0.560249, 0.231369
642.20333897199998319, -0.00317489, -0.0015224, -0.000712311, 0.00877488, 0.557345, 0.233809
642.23665527599996494, -0.00318654, -0.00152566, -0.000699659, 0.00879697, 0.558622, 0.233075
642.26997166700004982, -0.0031898, -0.00152824, -0.000697594, 0.00881721, 0.559856, 0.232144
642.3032879380000395, -0.00319301, -0.00153044, -0.000695134, 0.0088233, 0.560164, 0.231854
642.33675430499999948, -0.00319357, -0.001529, -0.000696432, 0.00880129, 0.55995, 0.231977
642.37007063800001561, -0.0031972, -0.00152587, -0.000692256, 0.00877025, 0.559715, 0.23202
642.40338694299998679, -0.00319974, -0.00152406, -0.000689585, 0.00875826, 0.559544, 0.232068
642.43670327200004522, -0.00319883, -0.00152241, -0.000690557, 0.00870762, 0.558593, 0.232537
642.47001963800005342, -0.0031998, -0.00152388, -0.000691332, 0.00873759, 0.559585, 0.231921
642.50333597199994529, -0.003201, -0.00152668, -0.000688009, 0.00876418, 0.560647, 0.231167
642.53665230499996142, -0.0032023, -0.00151962, -0.000686982, 0.00877606, 0.562078, 0.230012
642.56996860499998547, -0.00320655, -0.00151161, -0.000687796, 0.0087212, 0.561977, 0.229592
642.6032849719999831, -0.00320801, -0.00150495, -0.000689656, 0.00869509, 0.562202, 0.229073
642.63660124800003359, -0.00320527, -0.00150368, -0.000694261, 0.00864445, 0.561445, 0.229351
642.67006757599995126, -0.00320498, -0.00150852, -0.000696105, 0.00860573, 0.560871, 0.229813
642.70338397199998326, -0.00320262, -0.00150712, -0.000699908, 0.00853362, 0.560011, 0.230108
642.73670030499999939, -0.00320552, -0.00150354, -0.000703994, 0.00842681, 0.558252, 0.231013
642.77001664800002345, -0.00320381, -0.00150454, -0.000706058, 0.00840026, 0.558238, 0.231111
642.80333297100003165, -0.00320366, -0.00150381, -0.000707854, 0.00835208, 0.557737, 0.231191
642.8366493050000372, -0.00320611, -0.0015012, -0.000710853, 0.00824785, 0.556419, 0.231668
642.86996566699997402, -0.00321168, -0.00149495, -0.000709595, 0.00815974, 0.554759, 0.232178
642.90328197099995577, -0.00321539, -0.00148186, -0.000706794, 0.00791207, 0.55132, 0.232712
642.93659831000002214, -0.00321443, -0.00147503, -0.000703256, 0.00774847, 0.549853, 0.232967
642.96991460499998539, -0.0032164, -0.00147548, -0.000700104, 0.00762861, 0.548925, 0.233203
643.00323093800000152, -0.00321639, -0.00147518, -0.000696761, 0.00753746, 0.548155, 0.233166
643.03669730499996149, -0.00321645, -0.00147032, -0.000694118, 0.00737657, 0.546655, 0.233215
643.07001386199999615, -0.00321673, -0.00145961, -0.000687601, 0.00701027, 0.544163, 0.232139
643.10332993800000168, -0.00321683, -0.00145129, -0.000685812, 0.00677733, 0.542642, 0.231033
643.13664627599996493, -0.00322592, -0.0014525, -0.000679311, 0.00680565, 0.543393, 0.23052
643.16996260500002336, -0.00322944, -0.00145477, -0.000679155, 0.00678221, 0.543939, 0.230356
643.20327894299998661, -0.00323111, -0.00145689, -0.000676844, 0.00681299, 0.545136, 0.229819
643.23659530500003711, -0.00322758, -0.00146025, -0.000679549, 0.00680747, 0.545562, 0.229294
643.26991160499994749, -0.00321075, -0.00146626, -0.000694522, 0.00675016, 0.544025, 0.230304
643.30322797099995569, -0.00319404, -0.00146951, -0.000705367, 0.00671814, 0.542482, 0.231311
643.33654427600004055, -0.00317959, -0.00146697, -0.000708215, 0.00670071, 0.541944, 0.231872
643.37001060499994765, -0.003178, -0.00146715, -0.000709441, 0.00669715, 0.541929, 0.231962
643.40332693799996377, -0.0031812, -0.00147378, -0.000710928, 0.00669091, 0.541929, 0.232282
643.4366433049999614, -0.0031881, -0.0014734, -0.000712435, 0.00668428, 0.541935, 0.232373
643.46995960899994316, -0.0031863, -0.00148116, -0.000718507, 0.00668901, 0.543312, 0.231183
643.50327597099999366, -0.00318771, -0.00148619, -0.000720759, 0.00667337, 0.543502, 0.23113
643.53659230499999921, -0.00318893, -0.00148534, -0.000720261, 0.0066647, 0.544438, 0.2303
643.56990860899998097, -0.00319114, -0.0014844, -0.000721755, 0.00666344, 0.54503, 0.229722
643.6032249380000394, -0.00319532, -0.00148114, -0.00072274, 0.00664756, 0.545108, 0.229577
643.63654130500003703, -0.00319784, -0.00148221, -0.000721939, 0.00665045, 0.546344, 0.228501
643.66985763800005316, -0.00319777, -0.00148669, -0.000722699, 0.00666015, 0.547998, 0.227113
643.7031739709999556, -0.00320335, -0.00148513, -0.000723905, 0.00664211, 0.547119, 0.227749
643.73664027600000281, -0.00320512, -0.00148632, -0.000725197, 0.00665362, 0.549031, 0.22617
643.76995660499994756, -0.00320629, -0.00148369, -0.000724732, 0.00666337, 0.550376, 0.225005
643.80327297099995576, -0.00320584, -0.00148322, -0.000725578, 0.00667941, 0.552017, 0.22363
643.83658927600004063, -0.00320236, -0.00147907, -0.000720993, 0.00670842, 0.5548, 0.221345
643.86990563799997744, -0.00319814, -0.00147488, -0.00071491, 0.00675239, 0.55836, 0.218564
643.90322194299994862, -0.00320073, -0.00147395, -0.000711876, 0.00670681, 0.556585, 0.21968
643.93653830499999913, -0.00320446, -0.0014753, -0.000723153, 0.00654361, 0.548041, 0.225661
643.96985463800001526, -0.00320631, -0.00147816, -0.000724319, 0.00651472, 0.546199, 0.227031
644.00317093800003931, -0.00320852, -0.00147966, -0.00072357, 0.00643152, 0.544281, 0.22788
644.03648730500003694, -0.00321564, -0.0014854, -0.000718617, 0.00643534, 0.543343, 0.228976
644.06995360899998104, -0.00321635, -0.00148485, -0.000714855, 0.00649445, 0.544568, 0.228515
644.10326993800003947, -0.00322741, -0.00148047, -0.000710307, 0.0065699, 0.546499, 0.227739
644.13658624300001065, -0.00323043, -0.00148504, -0.000707422, 0.00652445, 0.545853, 0.227917
644.16990260499994747, -0.00323951, -0.00149836, -0.000709485, 0.0063558, 0.543008, 0.228776
644.20321897099995567, -0.00323638, -0.00154205, -0.000736418, 0.00595886, 0.532912, 0.234431
644.23653530499996123, -0.00323691, -0.00154666, -0.000738645, 0.00587748, 0.531764, 0.234602
644.26985160899994298, -0.00324242, -0.00154497, -0.000736864, 0.00579804, 0.530653, 0.234596
644.30316793800000141, -0.00325008, -0.00154868, -0.000737207, 0.00561325, 0.528423, 0.234503
644.33648430499999904, -0.00324839, -0.00154938, -0.000738684, 0.00531863, 0.525989, 0.233637
644.3698006089999808, -0.00324936, -0.0015474, -0.000738258, 0.00524644, 0.525203, 0.233549
644.4031169710000313, -0.00324737, -0.00154997, -0.000746525, 0.00499602, 0.522509, 0.233743
644.43658327599996483, -0.0032453, -0.00154863, -0.000748217, 0.00492155, 0.521887, 0.233715
644.46989963800001533, -0.00324761, -0.00154549, -0.000749774, 0.00480766, 0.520428, 0.233825
644.50321597100003146, -0.00324879, -0.00154877, -0.000752395, 0.00489629, 0.520527, 0.234419
644.53653230500003701, -0.00325176, -0.00155085, -0.000756086, 0.00476653, 0.518182, 0.234578
644.56984863800005314, -0.0032516, -0.00154535, -0.000757594, 0.0044339, 0.514537, 0.233691
644.60316497099995559, -0.00325004, -0.00154543, -0.000765647, 0.00424914, 0.511595, 0.234054
644.63648130499996114, -0.00324811, -0.00154494, -0.000774058, 0.00406598, 0.509439, 0.233695
644.66979763799997727, -0.00324606, -0.00155198, -0.000784825, 0.00388927, 0.508396, 0.232725
644.70311397600005421, -0.00322965, -0.00155472, -0.000803623, 0.00362032, 0.504868, 0.232616
644.73643030499999895, -0.00321231, -0.00156099, -0.000825071, 0.00362991, 0.504232, 0.233501
644.76989660899994306, -0.00321742, -0.00156643, -0.000820817, 0.00395519, 0.510216, 0.232006
644.80321293800000149, -0.0032194, -0.00156883, -0.0008234, 0.00402104, 0.511757, 0.231558
644.83652930499999911, -0.00321745, -0.00157831, -0.000835089, 0.00405608, 0.512409, 0.231495
644.86984560899998087, -0.00321436, -0.00158148, -0.000839744, 0.00406123, 0.512893, 0.23121
644.9031619380000393, -0.0032145, -0.00158142, -0.000839843, 0.00416686, 0.515119, 0.230469
644.93647830500003693, -0.00321377, -0.00158426, -0.000841552, 0.00413561, 0.514709, 0.230746
644.96979464300000018, -0.00321409, -0.00158496, -0.000838255, 0.00411884, 0.514307, 0.2309
645.00311093799996343, -0.0032117, -0.00158708, -0.000842963, 0.00403829, 0.512652, 0.231458
645.03642727600004037, -0.00320935, -0.00158861, -0.000846091, 0.00395338, 0.511192, 0.231905
645.06974362799996925, -0.00320685, -0.00159024, -0.000845658, 0.00385208, 0.509015, 0.232631
645.10305997600005412, -0.00320336, -0.00158983, -0.00084762, 0.00384413, 0.508852, 0.232626
645.13652627600004053, -0.00319962, -0.00159145, -0.000853966, 0.00381223, 0.508502, 0.232535
645.16984260899994297, -0.00319811, -0.00159491, -0.00085258, 0.00375952, 0.507128, 0.233198
645.20315894299994852, -0.00319638, -0.00159952, -0.000853257, 0.0036619, 0.505666, 0.2334
645.23647527100001753, -0.00319525, -0.00160313, -0.000857525, 0.00360097, 0.504996, 0.23327
645.26979160899998078, -0.00319282, -0.00163254, -0.0008622, 0.00333696, 0.500175, 0.234522
645.30310797100003128, -0.00319269, -0.00166822, -0.000857336, 0.00303821, 0.494073, 0.236623
645.33642427099994165, -0.00318985, -0.00167705, -0.00085965, 0.00292075, 0.492366, 0.236828
645.36974060399995778, -0.0031806, -0.00173068, -0.000866264, 0.00241501, 0.484201, 0.238582
645.40305693799996334, -0.00317887, -0.0017394, -0.000866667, 0.00228427, 0.482504, 0.238722
645.43637337099994511, -0.00317881, -0.00174018, -0.000865029, 0.00223532, 0.482092, 0.238738
645.46983963800005313, -0.00317962, -0.00174664, -0.000862847, 0.00209495, 0.48111, 0.238308
645.5031559379999635, -0.00318014, -0.00175029, -0.000861575, 0.00204514, 0.480605, 0.2382
645.53647227600004044, -0.00318252, -0.00176118, -0.000859587, 0.00190097, 0.479179, 0.237734
645.56978863799997725, -0.00318631, -0.00176784, -0.000860719, 0.0018017, 0.478406, 0.237232
645.60310497099999338, -0.0031886, -0.00177455, -0.00086484, 0.00169748, 0.478061, 0.236126
645.63642127100001744, -0.00318884, -0.00177625, -0.000864194, 0.00167291, 0.477766, 0.236054
645.66973763800001507, -0.00319112, -0.00177764, -0.000859431, 0.00163606, 0.477205, 0.236026
645.7030539710000312, -0.00319311, -0.00178255, -0.000858497, 0.00161926, 0.476974, 0.235959
645.73637030400004733, -0.00319707, -0.00177851, -0.000858238, 0.0016688, 0.47775, 0.235966
645.76968663800005288, -0.00320036, -0.0017788, -0.00085967, 0.00167234, 0.478545, 0.235255
645.80300293300001613, -0.00319714, -0.00178553, -0.000863427, 0.0015963, 0.477921, 0.234738
645.83646927600000254, -0.00319487, -0.00179476, -0.000863328, 0.00154963, 0.477703, 0.23429
645.86978563800005304, -0.00319415, -0.00179567, -0.000863001, 0.00154568, 0.477614, 0.234327
645.90310197099995548, -0.00319458, -0.00179247, -0.000861745, 0.00156299, 0.477592, 0.234664
645.93641830399997161, -0.00319496, -0.0017954, -0.000855195, 0.00154835, 0.47745, 0.234657
645.96973460899994279, -0.00319343, -0.00179326, -0.000853791, 0.00153646, 0.477577, 0.234429
646.0030509709999933, -0.00319512, -0.00179465, -0.000852346, 0.00148625, 0.477952, 0.233638
646.03636099000004833, -0.0031952, -0.00179537, -0.000854831, 0.00146788, 0.477879, 0.233587
646.06966890100000001, -0.00319291, -0.00179507, -0.000858796, 0.00140467, 0.477835, 0.233164
646.10297740399994382, -0.00319407, -0.00179175, -0.00086084, 0.00141826, 0.477144, 0.234036
646.13643588200000067, -0.00319453, -0.00178767, -0.000862085, 0.00140899, 0.476825, 0.23425
646.16974447699999473, -0.00319528, -0.00178559, -0.000861265, 0.00132664, 0.476734, 0.23342
646.20305298100004165, -0.0031987, -0.00178092, -0.000855484, 0.00117226, 0.476534, 0.231387
646.23636148900004628, -0.00319767, -0.00177983, -0.000856177, 0.00115698, 0.476476, 0.231341
646.26967005500000596, -0.00319782, -0.00178027, -0.000854514, 0.0011849, 0.476875, 0.23145
646.30297862600002645, -0.0031972, -0.00178472, -0.000853894, 0.00126932, 0.476912, 0.232446
646.33628716299995176, -0.00319895, -0.00179331, -0.00084845, 0.00137801, 0.477476, 0.232923
646.36959569999999076, -0.00319895, -0.00179745, -0.000847835, 0.00117687, 0.476383, 0.23087
646.40290423800001918, -0.00319938, -0.00179914, -0.000846023, 0.00109402, 0.475751, 0.23019
646.43621277499994449, -0.00319933, -0.00180011, -0.000846161, 0.00111733, 0.4753, 0.231086
646.46952131199998348, -0.00320708, -0.00180642, -0.000843574, 0.00102972, 0.473619, 0.231937
646.50297981500000333, -0.00320739, -0.00180963, -0.000848351, 0.00102273, 0.472563, 0.23323
646.53628835200004232, -0.00321141, -0.00181338, -0.000847885, 0.000974294, 0.471521, 0.234001
646.56959688899996763, -0.00321688, -0.00181704, -0.000848207, 0.000949195, 0.470949, 0.235058
646.60290542699999605, -0.00322445, -0.00182112, -0.000847176, 0.000915683, 0.470625, 0.235798
646.63621393500000067, -0.0032321, -0.00182402, -0.000846069, 0.000792216, 0.469371, 0.236197
646.66952246799996828, -0.00323787, -0.00182795, -0.000846095, 0.000719083, 0.468538, 0.236919
646.70283103799999935, -0.00324138, -0.00182851, -0.000845524, 0.000568443, 0.46734, 0.236214
646.73613954200004628, -0.00324609, -0.00183069, -0.000841365, 0.000428505, 0.465867, 0.235754
646.76944807999996101, -0.00325362, -0.00183751, -0.000838057, 0.000367608, 0.465322, 0.236233
646.80275662199994713, -0.00325619, -0.00183828, -0.000835762, 0.000446284, 0.466115, 0.236964
646.83621512399997755, -0.00325803, -0.00184355, -0.000836399, 0.000669649, 0.468302, 0.238612
646.86952369000005092, -0.00325872, -0.00184622, -0.000835907, 0.000737326, 0.468809, 0.239295
646.90283219399998416, -0.00326346, -0.00185393, -0.000839453, 0.000832189, 0.467867, 0.241677
646.93614076400001522, -0.00326755, -0.00186339, -0.000838808, 0.00093386, 0.467997, 0.24334
646.96944926799994846, -0.0032713, -0.00186922, -0.000839677, 0.00101322, 0.468746, 0.244041
647.00275783899996895, -0.00327416, -0.00187612, -0.000838851, 0.00105916, 0.467582, 0.245761
647.03607291599996643, -0.00327904, -0.00189752, -0.00083531, 0.00116305, 0.467861, 0.247272
647.06938960900004076, -0.00327896, -0.00190103, -0.000836914, 0.00119878, 0.468168, 0.247559
647.10270597099997758, -0.0032835, -0.00190232, -0.000839931, 0.00122586, 0.467746, 0.248263
647.13602240399995935, -0.00328211, -0.00190049, -0.000841476, 0.00122666, 0.467601, 0.248424
647.16933860400001777, -0.00328368, -0.00190976, -0.000847651, 0.00126535, 0.46699, 0.249565
647.20280493799998567, -0.00328145, -0.00191155, -0.000849938, 0.00125061, 0.46719, 0.249248
647.23612130399999387, -0.00327721, -0.001901, -0.000856386, 0.00118582, 0.469298, 0.246947
647.26943760899996505, -0.00328015, -0.00190219, -0.000857812, 0.00117042, 0.469451, 0.246728
647.30275397100001555, -0.00328496, -0.00190684, -0.000857739, 0.00116084, 0.469128, 0.246973
647.33607030400003168, -0.00328405, -0.00190844, -0.000860339, 0.00115717, 0.468403, 0.247489
647.36938660900000286, -0.00328694, -0.00191048, -0.000863803, 0.00112522, 0.468155, 0.247398
647.40270290900002692, -0.00329062, -0.00191461, -0.000865458, 0.00110636, 0.467113, 0.248022
647.43601937599999019, -0.00329478, -0.00191663, -0.000870867, 0.00102344, 0.46673, 0.247518
647.46933563699997194, -0.00329624, -0.00191677, -0.00087422, 0.000940248, 0.468331, 0.245458
647.50265448499999366, -0.00329619, -0.00191704, -0.000875704, 0.000917012, 0.468695, 0.24496
647.53596830399999362, -0.00329648, -0.00191462, -0.000875754, 0.000890643, 0.469372, 0.244178
647.56943457600004876, -0.00329448, -0.0019115, -0.000883897, 0.000842177, 0.471711, 0.24187
647.60275093699999616, -0.00329608, -0.00191, -0.000886447, 0.000803579, 0.473735, 0.239858
647.63606727599994883, -0.00329698, -0.00190715, -0.000886813, 0.000786327, 0.474134, 0.239429
647.66938360899996496, -0.00329952, -0.00190724, -0.000886035, 0.000790944, 0.473962, 0.239685
647.70269994199998109, -0.0033023, -0.00190372, -0.000884219, 0.000813086, 0.476526, 0.237958
647.73601627599998665, -0.00330564, -0.0019018, -0.000881972, 0.000827825, 0.477953, 0.237006
647.76933263700004773, -0.00330785, -0.0019009, -0.000879813, 0.000841882, 0.478994, 0.236283
647.80264894200001891, -0.00331399, -0.00189728, -0.000879357, 0.000892939, 0.481435, 0.234748
647.83596530399995572, -0.00331569, -0.00189712, -0.000880684, 0.000896055, 0.482031, 0.234333
647.86928163699997185, -0.00331352, -0.00189959, -0.000881541, 0.00086109, 0.480742, 0.235095
647.90274794200001907, -0.0033093, -0.00190826, -0.000887289, 0.000842115, 0.478739, 0.236485
647.93606430399995588, -0.0033066, -0.00191105, -0.00088817, 0.000812156, 0.477771, 0.236994
647.96938063699997201, -0.00330547, -0.00190909, -0.000888538, 0.000720019, 0.476945, 0.237044
648.00269693699999607, -0.00330246, -0.0019096, -0.000894969, 0.000557666, 0.475109, 0.237556
648.0360133039999937, -0.00330528, -0.00191613, -0.000894866, 0.000422517, 0.473281, 0.238056
648.06932960400001775, -0.00330291, -0.00191861, -0.000899161, 0.000332999, 0.472232, 0.238296
648.10264592299995456, -0.0032995, -0.00191936, -0.000905625, 0.000120067, 0.470308, 0.238298
648.13596224200000506, -0.00329957, -0.00191913, -0.000906863, -5.47481e-05, 0.46902, 0.237992
648.16927863700004764, -0.00330459, -0.00192308, -0.000903292, -0.000180773, 0.468276, 0.237658
648.20259497100005319, -0.00330646, -0.00192013, -0.000904872, -0.000172404, 0.46866, 0.237428
648.23591127099996356, -0.0033053, -0.00191395, -0.00090826, -0.000526354, 0.465941, 0.236683
648.26937760399994204, -0.00330525, -0.00191102, -0.000912107, -0.000755223, 0.464003, 0.236291
648.30269393699995817, -0.0033058, -0.00190701, -0.000912, -0.00105487, 0.461782, 0.235362
648.3360103039999558, -0.00330448, -0.00190656, -0.000916708, -0.0012523, 0.460152, 0.234846
648.36932663699997192, -0.00330324, -0.00191219, -0.000923197, -0.00139256, 0.458563, 0.234957
648.4026429419999431, -0.00330395, -0.00191244, -0.000925445, -0.00158569, 0.456443, 0.234882
648.43595930399999361, -0.00330223, -0.00191013, -0.000927167, -0.00165826, 0.455622, 0.234833
648.46927560400001767, -0.003298, -0.00190837, -0.000937123, -0.00173575, 0.454363, 0.234946
648.50259193700003379, -0.00329336, -0.00190355, -0.000946227, -0.00176441, 0.453783, 0.235054
648.53590830400003142, -0.00329402, -0.00189883, -0.000942228, -0.00169896, 0.454782, 0.234803
648.56922463700004755, -0.00329434, -0.00190148, -0.000943432, -0.00165105, 0.45566, 0.234564
648.60269093700003395, -0.00329041, -0.00189745, -0.000942786, -0.00158153, 0.456636, 0.234353
648.63600730400003158, -0.00328953, -0.00189227, -0.000938826, -0.00149367, 0.4581, 0.233924
648.66932364199999483, -0.00329039, -0.00189325, -0.000937038, -0.00150939, 0.458347, 0.233571
648.70263997100005327, -0.00329143, -0.00189259, -0.000937482, -0.00151503, 0.458206, 0.233635
648.73595630399995571, -0.00329202, -0.00189176, -0.000936687, -0.0015239, 0.457698, 0.233977
648.76927260900004057, -0.00329462, -0.00189587, -0.000938517, -0.00160051, 0.456526, 0.234171
648.80258897099997739, -0.00329379, -0.00189978, -0.000940104, -0.00163526, 0.456118, 0.234131
648.83590527100000145, -0.00329336, -0.00190126, -0.000941155, -0.0016394, 0.456848, 0.233495
648.86922160400001758, -0.00329243, -0.00190234, -0.00094513, -0.00168361, 0.457833, 0.23224
648.9025379710000152, -0.00329479, -0.00190741, -0.000949628, -0.00175302, 0.457815, 0.231503
648.93585565599994425, -0.0032969, -0.00191055, -0.000951579, -0.00182609, 0.457667, 0.230841
648.96932060899996486, -0.00329908, -0.00191644, -0.000954938, -0.00191046, 0.457506, 0.230052
649.00263694199998099, -0.00330035, -0.00192035, -0.000958539, -0.00197855, 0.45754, 0.229284
649.03595330400003149, -0.003302, -0.00192377, -0.000961719, -0.00203092, 0.45737, 0.228832
649.06926960399994186, -0.00330344, -0.00192606, -0.000961334, -0.00203519, 0.457314, 0.228818
649.10258597100005318, -0.0033037, -0.00192422, -0.000963988, -0.00205404, 0.458199, 0.227972
649.13590230399995562, -0.00330293, -0.00192515, -0.00096853, -0.00206822, 0.4596, 0.226763
649.16921860399997968, -0.00330323, -0.00193128, -0.000972285, -0.00201994, 0.462758, 0.224859
649.20253492300003018, -0.00330441, -0.00193926, -0.000973003, -0.00198673, 0.465409, 0.223093
649.23585130399999343, -0.00330571, -0.00194005, -0.00097264, -0.00194924, 0.466686, 0.222615
649.26916760400001749, -0.00330431, -0.00194176, -0.000975838, -0.00189483, 0.468404, 0.221953
649.30263397099997746, -0.00330098, -0.00194443, -0.000983531, -0.00192648, 0.467275, 0.22241
649.33595030399999359, -0.00329774, -0.00195359, -0.000985175, -0.00204136, 0.463706, 0.223902
649.36926660899996477, -0.00329927, -0.00195639, -0.000982379, -0.00202292, 0.463909, 0.223826
649.40258293700003378, -0.00329918, -0.00195667, -0.000983028, -0.00201885, 0.463984, 0.223803
649.43589930400003141, -0.00329838, -0.00195682, -0.000984392, -0.00204647, 0.463183, 0.224138
649.46921557500002109, -0.00330106, -0.00195602, -0.000982838, -0.00204034, 0.463779, 0.22379
649.50253193699995791, -0.00330163, -0.00195556, -0.000980401, -0.00206389, 0.463531, 0.223795
649.53584830399995553, -0.00329976, -0.00195472, -0.000982244, -0.00214134, 0.462472, 0.224016
649.56916484700002457, -0.0032948, -0.0019546, -0.000987834, -0.00224746, 0.460944, 0.224375
649.60248096999998779, -0.00328925, -0.00196161, -0.000992573, -0.00243411, 0.459825, 0.223771
649.63594727500003501, -0.00328297, -0.00198633, -0.00100226, -0.00280739, 0.456699, 0.223246
649.66926359900003263, -0.00328039, -0.00200363, -0.0010086, -0.00309753, 0.454312, 0.222907
649.70257996999998795, -0.00328758, -0.00200062, -0.00100446, -0.00320425, 0.453962, 0.222291
649.73589630399999351, -0.00328805, -0.00200229, -0.00100383, -0.00324701, 0.453712, 0.222086
649.76921260899996469, -0.00328467, -0.00199847, -0.00100798, -0.00356917, 0.451486, 0.221149
649.80252893700003369, -0.00328587, -0.00199974, -0.00100886, -0.00374185, 0.450298, 0.220564
649.83584527499999695, -0.0032859, -0.00199675, -0.00100703, -0.00394365, 0.448928, 0.219915
649.86916160399994169, -0.00328236, -0.0019933, -0.00101046, -0.00427705, 0.446756, 0.218807
649.90247794200001863, -0.00328222, -0.00199385, -0.00101376, -0.00477943, 0.443158, 0.217077
649.93579430399995545, -0.00327813, -0.00199275, -0.00101275, -0.00487165, 0.44281, 0.216626
649.96911063699997158, -0.00327951, -0.00199175, -0.00101466, -0.00502739, 0.441542, 0.216199
650.00257694200001879, -0.00328028, -0.00199194, -0.00101431, -0.00512749, 0.440769, 0.215857
650.03589330399995561, -0.0032814, -0.00199072, -0.00101724, -0.0053786, 0.438507, 0.21522
650.06920960399997966, -0.00328199, -0.00199027, -0.0010165, -0.00548962, 0.437558, 0.214919
650.10252596999998786, -0.00328066, -0.00198827, -0.00101799, -0.00556517, 0.43694, 0.214713
650.13584230399999342, -0.00328207, -0.00198504, -0.00102269, -0.0057875, 0.434892, 0.214353
650.16915863700000955, -0.00328401, -0.0019848, -0.00102006, -0.00575323, 0.435063, 0.214466
650.20247497000002568, -0.00328486, -0.00198546, -0.00102534, -0.00588495, 0.433972, 0.214237
650.23579130400003123, -0.00328402, -0.00198462, -0.00102635, -0.00593824, 0.433602, 0.214103
650.26910760800001299, -0.00328361, -0.00198072, -0.00102498, -0.00596261, 0.433557, 0.213978
650.3024239699999498, -0.00327912, -0.00197805, -0.00102663, -0.00596513, 0.433678, 0.21385
650.33589030400003139, -0.00327645, -0.00198104, -0.00103173, -0.00607093, 0.432907, 0.213487
650.36920660800001315, -0.00326887, -0.00198052, -0.00103255, -0.00605508, 0.433473, 0.213278
650.4025229420000187, -0.00326729, -0.00198087, -0.00103388, -0.0060784, 0.433321, 0.213147
650.43583926999997402, -0.00326259, -0.0019821, -0.00103722, -0.00605948, 0.433825, 0.212934
650.46915563699997165, -0.0032601, -0.00198213, -0.00103952, -0.00608903, 0.433813, 0.21263
650.50247193699999571, -0.0032589, -0.00198191, -0.00103984, -0.00611773, 0.433591, 0.212504
650.53578853700003037, -0.00325931, -0.00199342, -0.00104448, -0.00630888, 0.431855, 0.211777
650.56910460799997509, -0.0032605, -0.00200007, -0.00104796, -0.00646201, 0.430666, 0.211034
650.60242094199998064, -0.00326089, -0.00199789, -0.00104758, -0.00651291, 0.430099, 0.210942
650.63573730400003114, -0.00326356, -0.0020083, -0.00104939, -0.00658684, 0.43011, 0.21013
650.66905363700004727, -0.00326229, -0.00201054, -0.00104942, -0.00658511, 0.430028, 0.210184
650.70251997000002575, -0.00326762, -0.00201535, -0.00104929, -0.00676884, 0.426854, 0.210401
650.7358363040000313, -0.00328034, -0.00203374, -0.00104146, -0.00696273, 0.423872, 0.210225
650.76915260800001306, -0.00328221, -0.00204458, -0.00103568, -0.00686804, 0.425363, 0.210093
650.8024689369999578, -0.00329025, -0.00205489, -0.00102921, -0.00685396, 0.425474, 0.210281
650.83578530399995543, -0.00330579, -0.0020781, -0.00102549, -0.0068847, 0.425915, 0.209707
650.86910160399997949, -0.00330625, -0.00208, -0.00102903, -0.00686255, 0.426918, 0.209354
650.90241791300002205, -0.00330393, -0.00209512, -0.00103444, -0.00681403, 0.428893, 0.20835
650.93573430399999324, -0.00331337, -0.00210783, -0.00103079, -0.00679272, 0.429622, 0.208081
650.96905063700000937, -0.00332391, -0.00211697, -0.00102353, -0.0067496, 0.430835, 0.207802
651.00236693700003343, -0.003331, -0.00212405, -0.00102266, -0.00672561, 0.431555, 0.207567
651.0358333039999934, -0.00333538, -0.00212982, -0.00102163, -0.00671308, 0.431892, 0.207435
651.06914963700000953, -0.00334161, -0.002135, -0.0010154, -0.00671266, 0.431524, 0.207608
651.10246597000002566, -0.00334422, -0.0021336, -0.00101419, -0.0067311, 0.431065, 0.207799
651.13578230400003122, -0.00334418, -0.00213073, -0.00101438, -0.00674581, 0.430878, 0.207848
651.16909863700004735, -0.00334654, -0.00212952, -0.00101194, -0.0067399, 0.431207, 0.207695
651.20241494200001853, -0.00334568, -0.0021286, -0.00100783, -0.00674242, 0.431232, 0.207654
651.23573127500003466, -0.00334497, -0.0021221, -0.0010076, -0.00679593, 0.430706, 0.207655
651.26904763699997147, -0.00334463, -0.00212155, -0.00100794, -0.00680375, 0.430632, 0.207648
651.3023639699999876, -0.00334404, -0.00212045, -0.00100659, -0.00680262, 0.430982, 0.207404
