time, bias_gyr_x, bias_gyr_y, bias_gyr_z, bias_acc_x, bias_acc_y, bias_acc_z
-1, 0, 0, 0, 0, 0, 0
780.75935576500000934, 0, 0, 0, 0, 0, 0
780.79267210299997259, -0.007586, -0.00562979, -0.00148714, -1.83157e-05, -8.10827e-05, -6.12666e-05
780.8259884650000231, -0.00525459, -0.00163652, -0.000725974, -0.00296934, 0.000571614, 0.000584556
780.85930478900002072, -0.00438116, -0.00360754, 0.00103904, -0.00397394, 9.84984e-05, 0.000876991
780.89262113200004478, -0.00152977, -0.00267492, -0.000250491, -0.0180261, -0.000341291, 0.00409927
780.92593743600002654, -0.00147871, -0.00110703, -0.000603447, -0.0405045, -0.0010064, 0.00925991
780.95925376499997128, -0.00107031, -0.00280344, -0.00075896, -0.0289119, -0.000752195, 0.00673064
780.99257007400001385, -0.00116994, -0.00276322, -0.000859137, -0.0493862, -0.00115379, 0.0112794
781.02603643199995531, -0.00146797, -0.00264228, -0.00102244, -0.0671085, -0.00139997, 0.0151685
781.05935279799996351, -0.00188889, -0.00304629, -0.000989441, -0.0631854, -0.00137754, 0.0143138
781.09266913199996907, -0.00207244, -0.00292708, -0.00100466, -0.0726161, -0.00137119, 0.0163516
781.12598540800001956, -0.00225056, -0.00286618, -0.00107158, -0.0752659, -0.0013466, 0.0169245
781.15930179800000133, -0.00233214, -0.00303925, -0.00114858, -0.0764443, -0.00133116, 0.0171647
781.19261813200000688, -0.00242286, -0.00291487, -0.00116145, -0.0810701, -0.0012049, 0.0181559
781.22593443200003094, -0.0024146, -0.00287987, -0.00114002, -0.0829185, -0.00112665, 0.0185586
781.25925076999999419, -0.00225445, -0.00284623, -0.00116294, -0.0849447, -0.00102656, 0.0190073
781.29256713200004469, -0.00217533, -0.00270588, -0.001171, -0.0896603, -0.000762034, 0.0200851
781.32588343199995506, -0.00208657, -0.00270927, -0.00118326, -0.0893145, -0.000781909, 0.0200085
781.35919976499997119, -0.0019749, -0.00276006, -0.00120887, -0.0870135, -0.000940931, 0.0194397
781.39266610300001048, -0.00194089, -0.00268944, -0.00125433, -0.0884865, -0.000840212, 0.0198059
781.42598243199995522, -0.00190018, -0.00252759, -0.00124007, -0.0915965, -0.000613144, 0.0206291
781.45929876499997135, -0.00189086, -0.00239069, -0.00126609, -0.0930205, -0.000506211, 0.0210193
781.49261513199996898, -0.00185822, -0.00224908, -0.00127087, -0.0934874, -0.000468299, 0.0211651
781.52593143599995074, -0.00180018, -0.00218532, -0.00126694, -0.0933237, -0.000480118, 0.0211442
781.55924776500000917, -0.00173191, -0.00208054, -0.00130948, -0.093773, -0.000445942, 0.0213247
781.59256413200000679, -0.00171645, -0.00205499, -0.00133714, -0.0928677, -0.00051772, 0.0209858
781.62588043599998855, -0.00164197, -0.0019509, -0.00133115, -0.0931801, -0.000503194, 0.0211657
781.65919679800003905, -0.00163128, -0.00191151, -0.00134206, -0.091717, -0.000621114, 0.020487
781.69251310300001023, -0.00159782, -0.00199666, -0.00138537, -0.0890326, -0.000820503, 0.0191055
781.72597943599998871, -0.00158344, -0.00199649, -0.00142873, -0.0883545, -0.00082235, 0.0185913
781.75929576500004714, -0.00158071, -0.00191965, -0.0014434, -0.0898565, -0.000663853, 0.0194143
781.79261207000001832, -0.00158806, -0.00189876, -0.0014537, -0.0896147, -0.000648044, 0.0192518
781.82592908900005568, -0.00157388, -0.00185365, -0.00146396, -0.0902029, -0.000556888, 0.0196237
781.85925069799998255, -0.00152639, -0.00184118, -0.00145286, -0.0899169, -0.000580611, 0.0196025
781.89256110300004821, -0.00147439, -0.00185357, -0.00144271, -0.0892941, -0.000622439, 0.0193253
781.92587776000004851, -0.00143396, -0.00184365, -0.00142102, -0.0898131, -0.000530148, 0.0195709
781.95919377400002759, -0.00143171, -0.00182021, -0.00141473, -0.0901496, -0.00043237, 0.0196151
781.99251013100001728, -0.00141011, -0.00182745, -0.00137277, -0.0897886, -0.000427623, 0.0191472
782.02582643100004134, -0.00140229, -0.00184107, -0.00133844, -0.0897268, -0.000373718, 0.0188047
782.05914276500004689, -0.00140351, -0.00188441, -0.00128671, -0.0890304, -0.000407696, 0.0182171
782.09260913100001744, -0.00140193, -0.00189674, -0.00125717, -0.0896296, -0.000289784, 0.0188108
782.125925465000023, -0.00136353, -0.00191552, -0.0012049, -0.0895215, -0.000399319, 0.0192538
782.15924180299998625, -0.00129637, -0.00190305, -0.00114598, -0.0902066, -0.000438759, 0.0204872
782.1925580979999495, -0.00123113, -0.00190895, -0.001121, -0.0904617, -0.000496556, 0.0209345
782.22587443600002644, -0.00116918, -0.00190872, -0.00109666, -0.090498, -0.000490389, 0.0210043
782.25919079799996325, -0.00111283, -0.00191581, -0.00106794, -0.0906677, -0.000470977, 0.0209704
782.29250710300004812, -0.00110289, -0.0019069, -0.00104651, -0.090347, -0.000656618, 0.0203606
782.32582343599995056, -0.00110817, -0.0018766, -0.0010277, -0.090881, -0.000585497, 0.0202715
782.35913979800000106, -0.00111886, -0.00185575, -0.000996205, -0.0912702, -0.000531893, 0.0197316
782.39245609800002512, -0.00113716, -0.00185701, -0.000979727, -0.0906622, -0.000473127, 0.0184501
782.42592243599995072, -0.00113496, -0.00187905, -0.000949266, -0.0897415, -0.000390183, 0.0178372
782.45923879800000122, -0.00114559, -0.00187661, -0.0009331, -0.0885984, -0.00040202, 0.017487
782.49255513100001735, -0.00114816, -0.00187587, -0.000920712, -0.0875673, -0.000272785, 0.0171491
782.52587146500002291, -0.00114052, -0.00185868, -0.000897878, -0.0878245, 6.0436e-05, 0.0175708
782.55918779800003904, -0.00113774, -0.00184608, -0.000883479, -0.0879727, 0.00034902, 0.0175192
782.59250413600000229, -0.00113615, -0.00182789, -0.00086299, -0.0885983, 0.000614889, 0.0179354
782.62582040300003428, -0.00113467, -0.00180602, -0.000841124, -0.0895227, 0.000780977, 0.0183068
782.65913679799996316, -0.00113614, -0.00181755, -0.000833743, -0.088766, 0.000881753, 0.0177698
782.69245309799998722, -0.00113043, -0.00183523, -0.00082264, -0.0877253, 0.00097591, 0.0178414
782.72576943599995047, -0.00112221, -0.00184831, -0.000812951, -0.0872593, 0.00132027, 0.0182377
782.75908579800000098, -0.00110671, -0.00186055, -0.000784089, -0.0868249, 0.00150712, 0.0194
782.79255210300004819, -0.00109812, -0.00189541, -0.000774605, -0.0852945, 0.00107152, 0.0203708
782.82586846499998501, -0.00110064, -0.00194138, -0.000753728, -0.0841632, 0.00037613, 0.0208736
782.85918479800000114, -0.00109827, -0.00195044, -0.000756714, -0.0828132, -0.000229752, 0.0210997
782.89250113100001727, -0.00110287, -0.00192454, -0.000816236, -0.0854927, 0.000654935, 0.0166292
782.92581742200002282, -0.0011054, -0.00189534, -0.000832952, -0.089173, 0.00192118, 0.0124834
782.95913376900000458, -0.00110571, -0.0018735, -0.00079341, -0.0919847, 0.00238994, 0.0104203
782.99245013100005508, -0.00110593, -0.00187947, -0.000744918, -0.0907981, 0.00109882, 0.0136665
783.02576642200006063, -0.00109485, -0.00192556, -0.000717949, -0.0893255, -0.000692713, 0.01727
783.059082764999971, -0.00108312, -0.00195523, -0.000668074, -0.0898531, -0.00260133, 0.0175938
783.09239913099997921, -0.00107057, -0.00196343, -0.000624718, -0.0902589, -0.00370974, 0.0183746
783.12586554599999999, -0.00106938, -0.00195052, -0.000600556, -0.0939558, -0.00637681, 0.0111463
783.15918176499997116, -0.00107206, -0.00192815, -0.000599028, -0.0977397, -0.00939508, 0.00296723
783.19249809799998729, -0.00107574, -0.00192355, -0.000577385, -0.0992684, -0.0120041, 0.000286402
783.22581443100000342, -0.00107449, -0.00191982, -0.000558911, -0.100542, -0.0141998, -0.00175369
783.25913076500000898, -0.00107501, -0.00192263, -0.000544315, -0.101424, -0.0168039, -0.00301395
783.29244707899999867, -0.00107555, -0.001928, -0.00052787, -0.101504, -0.0188833, -0.00197574
783.32576343599998836, -0.00107589, -0.00195357, -0.0004986, -0.101574, -0.0243285, -8.61934e-05
783.35907979800003886, -0.00108062, -0.00199659, -0.000484382, -0.0992569, -0.0234063, 0.00557695
783.39239613100005499, -0.00108332, -0.00203832, -0.000459122, -0.0974844, -0.0245696, 0.0108901
783.4257124030000341, -0.00108381, -0.00205657, -0.000461586, -0.096241, -0.0227872, 0.0131886
783.45917876900000465, -0.00108336, -0.00206738, -0.000452634, -0.0948453, -0.019866, 0.0160261
783.4924951030000102, -0.00108299, -0.0020806, -0.000449402, -0.0936956, -0.0160768, 0.0165282
783.52581143099996552, -0.00108236, -0.00209074, -0.000440711, -0.0923674, -0.0134343, 0.0186136
783.55912779799996315, -0.00108229, -0.00208598, -0.000442745, -0.0909389, -0.00774899, 0.0182284
783.59244410300004802, -0.00107845, -0.00206677, -0.000461289, -0.0903951, 0.00184598, 0.0122261
783.62576043100000334, -0.00107336, -0.00205893, -0.000482496, -0.0907028, 0.00732677, 0.00324197
783.65907676000006177, -0.00107296, -0.00207331, -0.000498849, -0.0911461, 0.00692218, -0.00773326
783.69239309800002502, -0.00107287, -0.00206891, -0.000518037, -0.0925015, 0.00791501, -0.0182853
783.72570943599998827, -0.0010705, -0.00206912, -0.000526331, -0.0931093, 0.00632788, -0.0260686
783.7590257690000044, -0.00106535, -0.00208289, -0.000520761, -0.0928139, 0.00146496, -0.0279374
783.79234213100005491, -0.00106342, -0.002086, -0.000522205, -0.092474, -0.00508641, -0.0321245
783.82580846500002281, -0.00106002, -0.00204452, -0.000566147, -0.0966658, 0.00981303, -0.0507942
783.85912476900000456, -0.00105744, -0.00201537, -0.000614231, -0.102004, 0.0267661, -0.0706397
783.89244110300001012, -0.0010523, -0.00200516, -0.000675393, -0.10854, 0.0219902, -0.102751
783.92575746500006062, -0.00105411, -0.00198498, -0.00073027, -0.11407, 0.0183216, -0.130619
783.9590737360000503, -0.0010545, -0.00195293, -0.000771781, -0.117622, 0.0140762, -0.151305
783.99239013099997919, -0.00105062, -0.00189633, -0.000817791, -0.122307, 0.0302019, -0.172446
784.02570646499998475, -0.00105101, -0.00188278, -0.000856886, -0.128971, 0.0589385, -0.194723
784.05902279800000088, -0.00105154, -0.00186336, -0.000869504, -0.131013, 0.0761072, -0.200564
784.09233913100001701, -0.00105037, -0.00186974, -0.000875213, -0.134014, 0.102435, -0.206394
784.12565546500002256, -0.00105471, -0.00190736, -0.000851055, -0.137934, 0.130358, -0.215502
784.15912179800000104, -0.00106521, -0.00195464, -0.000781004, -0.140377, 0.15816, -0.218373
784.19243813100001717, -0.00107064, -0.0020166, -0.000684988, -0.143149, 0.183962, -0.222991
784.22575446400003329, -0.0010694, -0.00207078, -0.000628195, -0.148316, 0.213225, -0.237899
784.25907076900000447, -0.00106594, -0.00210685, -0.000598358, -0.152363, 0.232508, -0.25063
784.29238713100005498, -0.00106171, -0.00211826, -0.000617015, -0.155541, 0.245452, -0.261187
784.32570346399995742, -0.00105989, -0.00210741, -0.000674551, -0.154694, 0.239543, -0.257985
784.35901979799996298, -0.00105843, -0.00210721, -0.000729449, -0.154216, 0.236616, -0.255545
784.3923361309999791, -0.00105757, -0.00210158, -0.00076061, -0.155675, 0.242696, -0.259934
784.42565246399999523, -0.00105865, -0.00209813, -0.000741465, -0.157372, 0.246584, -0.266503
784.45896879800000079, -0.00105641, -0.0021268, -0.000696567, -0.159435, 0.246927, -0.275361
784.49228513100001692, -0.00105765, -0.00213557, -0.000653202, -0.161925, 0.249787, -0.285621
784.52575140299995837, -0.00106074, -0.00215924, -0.000565427, -0.164984, 0.250869, -0.299745
784.55906779800000095, -0.00106522, -0.00219305, -0.000445537, -0.168352, 0.250533, -0.316586
784.59238409800002501, -0.00107279, -0.00221184, -0.000347061, -0.172205, 0.251934, -0.334168
784.62570047400004114, -0.001075, -0.00223245, -0.000302941, -0.17331, 0.251718, -0.340214
784.65901676900000439, -0.0010698, -0.00224828, -0.000311726, -0.169792, 0.249841, -0.328355
784.69233310300000994, -0.00106787, -0.00224531, -0.000316866, -0.168086, 0.249504, -0.322875
784.72564946399995733, -0.00107106, -0.00222644, -0.000277819, -0.170323, 0.248763, -0.332526
784.75896576399998139, -0.00107805, -0.00222388, -0.00021226, -0.173056, 0.248946, -0.345129
784.79228210200005833, -0.00107868, -0.00222544, -0.000178742, -0.173802, 0.250204, -0.349673
784.82559846399999515, -0.00107702, -0.00222154, -0.000158388, -0.173079, 0.252705, -0.349018
784.85906479799996305, -0.00108161, -0.00223779, -0.000142346, -0.17163, 0.25943, -0.345583
784.89238166400002683, -0.00108376, -0.00225348, -0.000143503, -0.170914, 0.26373, -0.343589
784.92569743599995036, -0.0010854, -0.00225791, -0.00013813, -0.169416, 0.269879, -0.339483
784.95901379800000086, -0.00108448, -0.00226507, -0.000136436, -0.167947, 0.27645, -0.335601
784.99233007400005135, -0.00108419, -0.00226529, -0.000132865, -0.167605, 0.277969, -0.334782
785.02564646400003312, -0.00108121, -0.00225398, -0.000151587, -0.166338, 0.280747, -0.330777
785.05896279800003867, -0.00107833, -0.00224047, -0.000188453, -0.164151, 0.286206, -0.324244
785.0922791310000548, -0.00107416, -0.0022198, -0.000237779, -0.16124, 0.293579, -0.316079
785.12559543600002598, -0.00107135, -0.00218538, -0.000295703, -0.158871, 0.297809, -0.309368
785.15891178300000774, -0.00107284, -0.00216385, -0.000304301, -0.156775, 0.302798, -0.304684
785.19222813099997893, -0.00107436, -0.00216495, -0.00029115, -0.155349, 0.306944, -0.302062
785.22569443099996533, -0.00107186, -0.00216496, -0.000277362, -0.153986, 0.309845, -0.299752
785.25901078799995503, -0.00106251, -0.00216238, -0.00030848, -0.152834, 0.311011, -0.297475
785.2923271020000584, -0.00105987, -0.0021226, -0.00036381, -0.153143, 0.309092, -0.297498
785.32564343599995027, -0.00105814, -0.00208771, -0.00040247, -0.152517, 0.306326, -0.296828
785.35896041700004844, -0.00105783, -0.00208116, -0.000429534, -0.151249, 0.301608, -0.295706
785.3922761310000169, -0.0010531, -0.00208495, -0.000451007, -0.15084, 0.298741, -0.295694
785.42559246400003303, -0.00104782, -0.00205957, -0.000478899, -0.15017, 0.290153, -0.29605
785.45890995499996734, -0.00104706, -0.00202809, -0.000535798, -0.150403, 0.288351, -0.297638
785.49222513100005472, -0.00104533, -0.00199176, -0.000581647, -0.15093, 0.290643, -0.299249
785.52554143099996509, -0.00104521, -0.00195067, -0.000607031, -0.15108, 0.290599, -0.300024
785.55900776900000437, -0.00104665, -0.00192014, -0.000617752, -0.151075, 0.289196, -0.300464
785.5923241020000205, -0.00104715, -0.00188006, -0.000649155, -0.15143, 0.291503, -0.301456
785.62564046399995732, -0.00105285, -0.00188325, -0.000644435, -0.151734, 0.294227, -0.302166
785.65895676900004219, -0.00105485, -0.00186781, -0.000665445, -0.152572, 0.302632, -0.303966
785.692273130999979, -0.00105513, -0.00184676, -0.000688173, -0.153384, 0.311248, -0.30566
785.72558940199996869, -0.00105864, -0.00184436, -0.00069145, -0.154269, 0.318396, -0.308233
785.75890579800000069, -0.0010636, -0.00185036, -0.000690643, -0.155618, 0.328334, -0.312518
785.79222213100001682, -0.00107222, -0.00185586, -0.000668426, -0.156407, 0.331317, -0.315698
785.82553846400003295, -0.00108452, -0.00186224, -0.000634022, -0.157173, 0.331992, -0.319343
785.858854764000057, -0.00109846, -0.00187184, -0.000588452, -0.159155, 0.336929, -0.327898
785.89217109800006256, -0.00111128, -0.00188033, -0.000542969, -0.1616, 0.341852, -0.338617
785.92563746400003311, -0.00111438, -0.00188603, -0.000511639, -0.163249, 0.344353, -0.345926
785.95895479299997533, -0.00112136, -0.00188892, -0.00047248, -0.167181, 0.351837, -0.362261
785.99227013100005479, -0.00112561, -0.00189341, -0.000469148, -0.169291, 0.357306, -0.370562
786.02558646399995723, -0.00112782, -0.00190185, -0.000479411, -0.167836, 0.355565, -0.36493
786.0589027690000421, -0.00112867, -0.00189814, -0.000507488, -0.164701, 0.352218, -0.352065
786.09221909799998684, -0.00113101, -0.00188881, -0.000511234, -0.161829, 0.348747, -0.340927
786.1255354359999501, -0.00113356, -0.00189681, -0.000482507, -0.160566, 0.347395, -0.336952
786.1588517640000191, -0.00113565, -0.00192045, -0.000432563, -0.161109, 0.348281, -0.340472
786.19216813100001673, -0.00114026, -0.00193931, -0.000376566, -0.165154, 0.350325, -0.357294
786.22548446899997998, -0.0011475, -0.00197269, -0.000286695, -0.166064, 0.351308, -0.363049
786.25895076899996639, -0.00115584, -0.00199393, -0.000198715, -0.164013, 0.350095, -0.35753
786.29226710199998251, -0.00115616, -0.00200852, -0.000185985, -0.162249, 0.350574, -0.351123
786.32558365900001718, -0.00115407, -0.0020231, -0.000161789, -0.160493, 0.351408, -0.344839
786.3588997690000042, -0.00115148, -0.00202553, -0.00015916, -0.15966, 0.351672, -0.341698
786.39221610200002033, -0.00115484, -0.00203562, -0.000124913, -0.157151, 0.35308, -0.332208
786.42553246900001795, -0.00115856, -0.0020506, -6.96717e-05, -0.155361, 0.354535, -0.325349
786.45884879699997327, -0.00115985, -0.00205383, -5.21585e-05, -0.156704, 0.353784, -0.330579
786.49216509699999733, -0.00116485, -0.00206926, -3.93967e-06, -0.156513, 0.354166, -0.329348
786.52548143100000289, -0.00115752, -0.00211691, -1.57177e-05, -0.159968, 0.353138, -0.343298
786.55879776899996614, -0.00115046, -0.00214009, -4.35887e-05, -0.160967, 0.352807, -0.347846
786.59226413099997899, -0.00115459, -0.00212151, -3.05257e-05, -0.155731, 0.356078, -0.325902
786.62558043599995017, -0.00115596, -0.00209641, -2.96961e-05, -0.152155, 0.35898, -0.310837
786.65889676400001918, -0.00115313, -0.00210407, -4.492e-05, -0.148213, 0.36108, -0.294607
786.6922131310000168, -0.00115314, -0.00210667, -5.71547e-05, -0.14026, 0.365648, -0.261155
786.72552946400003293, -0.00115578, -0.00209554, -4.77369e-05, -0.132956, 0.370428, -0.229536
786.75884579700004906, -0.00115618, -0.00210914, -3.48442e-05, -0.127496, 0.371569, -0.205315
786.79216213100005461, -0.00115691, -0.00209602, -3.71342e-05, -0.123233, 0.373255, -0.186791
786.82547846399995706, -0.00114589, -0.00209736, -9.5398e-05, -0.121302, 0.369412, -0.181243
786.85879479699997319, -0.00114127, -0.00209289, -0.000145295, -0.123885, 0.366562, -0.195708
786.89211109699999724, -0.00113279, -0.00210444, -0.000187838, -0.125149, 0.359747, -0.203806
786.9254274310000028, -0.00113545, -0.00208868, -0.000194913, -0.121017, 0.355294, -0.185642
786.95889379699997335, -0.00113081, -0.0020826, -0.000249669, -0.127337, 0.356351, -0.217926
786.9922101309999789, -0.00112598, -0.00208346, -0.000295829, -0.126966, 0.339786, -0.218526
787.02552646399999503, -0.00112392, -0.00210116, -0.000315494, -0.127652, 0.329533, -0.222562
787.05884276400001909, -0.00112179, -0.00207625, -0.000355319, -0.126572, 0.316688, -0.219437
787.09215910199998234, -0.0011214, -0.00206367, -0.000362497, -0.122577, 0.301477, -0.20093
787.12547543499999847, -0.0011206, -0.00204184, -0.000380976, -0.124449, 0.307942, -0.211131
787.15879179700004897, -0.00111374, -0.00208263, -0.000415419, -0.128762, 0.298502, -0.232247
787.19210813100005453, -0.0011126, -0.00208495, -0.000444586, -0.128577, 0.279498, -0.232079
787.22542443500003628, -0.00111003, -0.00208799, -0.000479783, -0.128142, 0.258692, -0.230763
787.2587407969999731, -0.00111827, -0.00211328, -0.000460588, -0.130606, 0.26919, -0.242069
787.29220987799999421, -0.00112769, -0.00215363, -0.000432137, -0.131687, 0.270129, -0.246157
787.32552346399995713, -0.00113817, -0.00216783, -0.000435229, -0.132761, 0.265287, -0.251257
787.35883979699997326, -0.00114364, -0.00215132, -0.00045038, -0.132385, 0.258959, -0.249927
787.39215613099997881, -0.00115119, -0.00214685, -0.000445713, -0.130652, 0.250473, -0.241526
787.42547243100000287, -0.0011494, -0.0021543, -0.000449612, -0.129411, 0.241339, -0.235468
787.458788764000019, -0.00114655, -0.00215993, -0.000458287, -0.128635, 0.233824, -0.23174
787.49210506899999018, -0.00115434, -0.00219265, -0.000421115, -0.129475, 0.23503, -0.234921
787.52542143499999838, -0.00115412, -0.00220854, -0.000426857, -0.12855, 0.227644, -0.230329
787.55873779700004889, -0.0011489, -0.0022007, -0.000458321, -0.127168, 0.223978, -0.224077
787.59205530200006251, -0.00115132, -0.00218856, -0.00046265, -0.126049, 0.22241, -0.219027
787.62537046399995688, -0.0011576, -0.00219311, -0.000445052, -0.126439, 0.222925, -0.220755
787.65883680700005698, -0.00116674, -0.00220671, -0.000401502, -0.12717, 0.223339, -0.224043
787.69215349700004936, -0.00118153, -0.00221731, -0.000343954, -0.129488, 0.22554, -0.23468
787.72546943500003636, -0.00118982, -0.00223289, -0.000312909, -0.130956, 0.225961, -0.241366
787.75878579699997317, -0.00120682, -0.00227201, -0.000244431, -0.130199, 0.223893, -0.238483
787.79210206899995228, -0.00121114, -0.00228572, -0.000223875, -0.128914, 0.222862, -0.233038
787.82541843100000278, -0.00121419, -0.00229495, -0.000209694, -0.127485, 0.222496, -0.227049
787.85873479700001099, -0.00121318, -0.00230184, -0.000215656, -0.126404, 0.22291, -0.222365
787.89205113100001654, -0.0012111, -0.00230122, -0.000242175, -0.123886, 0.224831, -0.211358
787.9253674310000406, -0.00121244, -0.00230436, -0.000259557, -0.121896, 0.226905, -0.202916
787.9586837970000488, -0.0012072, -0.00236468, -0.000254364, -0.119225, 0.232308, -0.192489
787.99215010199998233, -0.00120769, -0.00237233, -0.000249201, -0.118877, 0.233197, -0.191346
788.02546643499999846, -0.00121277, -0.00235875, -0.000213559, -0.122297, 0.226478, -0.205029
788.05878276400005689, -0.00122432, -0.00236467, -0.000164434, -0.123754, 0.22415, -0.212049
788.09209909699995933, -0.00122183, -0.00235739, -0.000183303, -0.120766, 0.229529, -0.200961
788.12541543500003627, -0.00122786, -0.00232309, -0.000173518, -0.11926, 0.230666, -0.196237
788.15873176399998101, -0.00122948, -0.00234151, -0.000158753, -0.118255, 0.234106, -0.193489
788.19204813099997864, -0.0012293, -0.00233411, -0.000144712, -0.119384, 0.231258, -0.197725
788.22536446399999477, -0.00122418, -0.00230379, -0.000173869, -0.118573, 0.23099, -0.194016
788.2586807970000109, -0.00122904, -0.0023197, -0.000150342, -0.116856, 0.235984, -0.189514
788.29199709700003496, -0.00123568, -0.00232479, -0.000120633, -0.117376, 0.235416, -0.192237
788.32531346400003258, -0.00123257, -0.00229588, -0.000126142, -0.115851, 0.236794, -0.187384
788.35877979700001106, -0.00123067, -0.00227493, -0.00011119, -0.115859, 0.23561, -0.188063
788.39209613100001661, -0.00123028, -0.00228574, -0.000101271, -0.114637, 0.238761, -0.184594
788.42541246899997986, -0.00122903, -0.00228172, -0.000103638, -0.113503, 0.240865, -0.181011
788.45872876900000392, -0.00123102, -0.00225328, -8.30065e-05, -0.112204, 0.242269, -0.177576
788.49204513100005443, -0.00123173, -0.00227566, -7.1333e-05, -0.110587, 0.246936, -0.172565
788.52536146399995687, -0.00122577, -0.00226688, -9.79961e-05, -0.108908, 0.249718, -0.166687
788.558677796999973, -0.00121867, -0.00225091, -0.000140674, -0.107622, 0.250998, -0.161902
788.59199409699999705, -0.00121227, -0.00224874, -0.000197147, -0.106005, 0.253054, -0.155844
788.62531041099998674, -0.00120966, -0.00225635, -0.000226571, -0.103797, 0.2559, -0.147999
788.65862676899996586, -0.00119479, -0.00223135, -0.000317918, -0.10402, 0.254357, -0.148358
788.69209312999998929, -0.00117475, -0.002243, -0.000410901, -0.104259, 0.254261, -0.148854
788.7254094019999684, -0.00117922, -0.00223186, -0.000407415, -0.1031, 0.253584, -0.144488
788.75872574000004533, -0.0011808, -0.00223631, -0.000394136, -0.101471, 0.253067, -0.138145
788.79204209700003503, -0.00118189, -0.00223408, -0.0003867, -0.0993069, 0.25153, -0.129584
788.82535843000005116, -0.00118075, -0.00222653, -0.000410913, -0.0998827, 0.251406, -0.131885
788.85867479199998797, -0.00118464, -0.00222853, -0.000417286, -0.100101, 0.25156, -0.132811
788.89199109699995915, -0.00118645, -0.00222955, -0.000419485, -0.0992253, 0.250917, -0.129051
788.92530743500003609, -0.0011837, -0.00223868, -0.000448443, -0.0978943, 0.250771, -0.123046
788.95862379699997291, -0.00118215, -0.00221708, -0.000470243, -0.0981796, 0.249931, -0.123989
788.99194009699999697, -0.00118724, -0.00221352, -0.000460361, -0.098207, 0.249701, -0.124177
789.02525643499996022, -0.00119286, -0.00221059, -0.000425111, -0.0989558, 0.248543, -0.128123
789.05872279699997307, -0.00119655, -0.00220979, -0.000399101, -0.10125, 0.24541, -0.139141
789.0920391299999892, -0.00120361, -0.00221307, -0.000387139, -0.10335, 0.242387, -0.149039
789.12535543000001326, -0.00120012, -0.00224484, -0.000391746, -0.102446, 0.246712, -0.145057
789.15867179700001088, -0.00118619, -0.00227693, -0.000428065, -0.100442, 0.253999, -0.135421
789.19198809700003494, -0.00117685, -0.00230858, -0.000458898, -0.0982855, 0.26291, -0.125261
789.22530446400003257, -0.00117545, -0.00233223, -0.000449276, -0.0985033, 0.264371, -0.126747
789.25862076400005662, -0.0011725, -0.0023638, -0.000442782, -0.0976399, 0.270942, -0.1234
789.29193709699995907, -0.0011752, -0.00237442, -0.000419007, -0.0975579, 0.274069, -0.12391
789.32525340200004393, -0.00117983, -0.00238247, -0.000398153, -0.0975498, 0.275678, -0.124518
789.35856979699997282, -0.00117907, -0.00240782, -0.000405114, -0.0956348, 0.28808, -0.116394
789.3920361299999513, -0.00117922, -0.0024178, -0.00040494, -0.0926174, 0.307664, -0.10391
789.42535246399995685, -0.00117615, -0.00241474, -0.000389277, -0.0909964, 0.319069, -0.0977067
789.4586687680000523, -0.0011772, -0.00244218, -0.000387297, -0.0892066, 0.333116, -0.0905854
789.49198509699999704, -0.00118539, -0.00247332, -0.000360908, -0.0876222, 0.347984, -0.0850256
789.52530146399999467, -0.00118954, -0.00250972, -0.000338974, -0.0850043, 0.370856, -0.0753499
789.55861776799997642, -0.00119267, -0.00252521, -0.000317667, -0.0833029, 0.385896, -0.0692449
789.59193430699997407, -0.00119452, -0.00254313, -0.000303081, -0.0816144, 0.400728, -0.0631172
789.62525043000005098, -0.00119663, -0.00255519, -0.00029477, -0.0795637, 0.417969, -0.0555625
789.65856676800001424, -0.00119721, -0.00256746, -0.000286272, -0.0780974, 0.430595, -0.0502527
789.69188310200001979, -0.00119692, -0.00257433, -0.000281679, -0.0756858, 0.45073, -0.0415712
789.72534946400003264, -0.00119796, -0.0025929, -0.000285385, -0.0723086, 0.479089, -0.0295822
789.7586657640000567, -0.00119716, -0.00260987, -0.000294395, -0.0712756, 0.487841, -0.0259446
789.79198210200001995, -0.00119479, -0.00260218, -0.000311229, -0.0711581, 0.488536, -0.0255703
789.82529842099995676, -0.00118855, -0.00260215, -0.000339465, -0.0716737, 0.484176, -0.0273509
789.8586147969999729, -0.00117967, -0.00260479, -0.000382345, -0.0706872, 0.492599, -0.0245207
789.89193112999998903, -0.00117813, -0.00259973, -0.000391127, -0.0679731, 0.514841, -0.0163606
789.92524743499996021, -0.00117822, -0.00259809, -0.000395122, -0.0675298, 0.518415, -0.0151601
789.95856376400001864, -0.00117586, -0.0025951, -0.00040521, -0.0664501, 0.527074, -0.0124807
789.99188013499997396, -0.00117174, -0.00259658, -0.000430044, -0.064929, 0.539206, -0.00914145
790.02519651600005091, -0.00116684, -0.00259136, -0.000465746, -0.064837, 0.541337, -0.0101143
790.05851279700004852, -0.001162, -0.00260782, -0.000488572, -0.064856, 0.541921, -0.0108932
790.09197906800000055, -0.00115737, -0.00258251, -0.000507828, -0.0640428, 0.54814, -0.00977855
790.12529546400003255, -0.00115004, -0.00258805, -0.000533245, -0.0628357, 0.555051, -0.00754745
790.15861176800001431, -0.00113818, -0.00258246, -0.000569054, -0.0626645, 0.556572, -0.00826645
790.19192813999995906, -0.00112935, -0.00257969, -0.000601847, -0.0621816, 0.558634, -0.00812405
790.22524443500003599, -0.00113206, -0.00258848, -0.000617121, -0.0618542, 0.559457, -0.00777847
790.25856079699997281, -0.00113617, -0.0025842, -0.000635935, -0.0621129, 0.558815, -0.00903058
790.29187709699999687, -0.00113725, -0.00257979, -0.000652427, -0.062329, 0.558271, -0.00996605
790.32519346399999449, -0.0011395, -0.00258381, -0.000669097, -0.0619309, 0.557693, -0.00893626
790.35850976400001855, -0.00113912, -0.00258533, -0.000677247, -0.0615445, 0.557316, -0.00773115
790.39182609700003468, -0.00114057, -0.00258793, -0.0006862, -0.0614462, 0.556991, -0.0074119
790.42529243499996028, -0.00114817, -0.00259848, -0.000682806, -0.0614505, 0.556997, -0.00749459
790.45860874000004515, -0.00114991, -0.00260438, -0.000672287, -0.0614486, 0.557179, -0.00759668
790.49192513000002691, -0.00115214, -0.00259381, -0.000661979, -0.0618109, 0.556825, -0.00923371
790.52524143000005097, -0.00115737, -0.00259386, -0.0006462, -0.0627138, 0.555917, -0.0133459
790.55855778299996928, -0.00116906, -0.00259649, -0.000625506, -0.063506, 0.554786, -0.0171775
790.59187409699995897, -0.00118183, -0.00259422, -0.000607254, -0.0634385, 0.555255, -0.0173437
790.6251904350000359, -0.0011894, -0.00258971, -0.000604452, -0.0632789, 0.555637, -0.0167607
790.6585067920000256, -0.00118928, -0.00258731, -0.000626804, -0.062855, 0.556439, -0.0143892
790.69182312999998885, -0.00119787, -0.00258621, -0.000624553, -0.0621977, 0.559361, -0.0116696
790.7251394639999944, -0.00120323, -0.00257952, -0.000623456, -0.0617434, 0.561004, -0.00974844
790.75845576400001846, -0.00120503, -0.00257607, -0.000616148, -0.0618726, 0.560377, -0.0105903
790.79192234399999961, -0.00121119, -0.00256461, -0.000597496, -0.0617259, 0.561904, -0.0106938
790.82523843000001307, -0.00121989, -0.002559, -0.000571918, -0.0619301, 0.56236, -0.0124934
790.85855476799997632, -0.0012294, -0.00256748, -0.00053994, -0.0625561, 0.560814, -0.0161991
790.89187110199998187, -0.00123784, -0.00257022, -0.000508291, -0.0637431, 0.554357, -0.022029
790.925187434999998, -0.00124747, -0.00256541, -0.0004731, -0.0641491, 0.554106, -0.0249791
790.95850376800001413, -0.0012535, -0.00257233, -0.000437768, -0.0639555, 0.559522, -0.0256971
790.99182009699995888, -0.00125478, -0.00257847, -0.000426622, -0.0635503, 0.564547, -0.0247008
791.02513643500003582, -0.00125661, -0.00258571, -0.000412341, -0.0635961, 0.565827, -0.0254068
791.05845279699997263, -0.00124788, -0.00259761, -0.000412904, -0.0634622, 0.567683, -0.0249799
791.09176912999998876, -0.00124507, -0.00260471, -0.000413748, -0.0628628, 0.573922, -0.0231115
791.12523546800002805, -0.00124873, -0.0026218, -0.000389715, -0.0620851, 0.584236, -0.0214843
791.15855177299999923, -0.00124911, -0.00262473, -0.000386576, -0.0615978, 0.589608, -0.0202161
791.19186810200005766, -0.0012494, -0.00262732, -0.000383798, -0.0613664, 0.592261, -0.0196764
791.22518443000001298, -0.00125414, -0.00264176, -0.000342814, -0.0611479, 0.596085, -0.0195576
791.25850079700001061, -0.00125486, -0.00266232, -0.00031573, -0.0610417, 0.598007, -0.0193437
791.29181713000002674, -0.00125925, -0.00265619, -0.000286139, -0.060909, 0.5995, -0.0191784
791.32513343000005079, -0.0012453, -0.00266248, -0.000301975, -0.0603313, 0.605603, -0.0181118
791.35844979700004842, -0.00124298, -0.00267243, -0.000328931, -0.05954, 0.613893, -0.0169406
791.39176612999995086, -0.00124398, -0.00267878, -0.000327334, -0.0588532, 0.61991, -0.0156692
791.42508246299996699, -0.00123842, -0.00268508, -0.000341458, -0.0585445, 0.623247, -0.0157043
791.45839879699997255, -0.00123363, -0.00269436, -0.000368427, -0.0586837, 0.623816, -0.0172014
791.49186510200001976, -0.00123199, -0.00268542, -0.00038654, -0.0584005, 0.627196, -0.0179869
791.52518140600000152, -0.00123551, -0.00267257, -0.000382821, -0.0576345, 0.63223, -0.0169288
791.55849773500005995, -0.00123077, -0.0026479, -0.000394682, -0.058351, 0.630422, -0.0194098
791.59181412999998884, -0.00123041, -0.00263009, -0.000398354, -0.0587769, 0.630122, -0.0209997
791.62513043000001289, -0.00122763, -0.00260937, -0.000408633, -0.0590934, 0.630887, -0.022896
791.65844676300002902, -0.00122362, -0.00259056, -0.000437953, -0.0596809, 0.631441, -0.0265741
791.69176313000002665, -0.00121867, -0.00257585, -0.000478731, -0.0599895, 0.631124, -0.0301272
791.72507943000005071, -0.00121691, -0.00256501, -0.000490831, -0.0599642, 0.630422, -0.0308228
791.75839576299995315, -0.00121227, -0.00256147, -0.000508354, -0.0601482, 0.629692, -0.0324719
791.7917120969999587, -0.00120545, -0.00254932, -0.000536327, -0.060387, 0.628624, -0.0348366
791.82517846300004294, -0.00120018, -0.00253914, -0.000574962, -0.0611793, 0.629349, -0.0394324
791.85849479700004849, -0.00119824, -0.00253499, -0.000595301, -0.0613475, 0.628222, -0.0410418
791.89181110100003025, -0.00119696, -0.00253068, -0.00061252, -0.0612944, 0.626296, -0.0417245
791.92512742999997499, -0.00119793, -0.00252945, -0.00061901, -0.0611628, 0.625023, -0.0415389
791.958443801000044, -0.00120366, -0.00253414, -0.000618368, -0.0604645, 0.621199, -0.0391455
791.99176010099995437, -0.00120474, -0.00252775, -0.000634733, -0.0599814, 0.618219, -0.0379384
792.02507368900000984, -0.00121062, -0.00253523, -0.000646581, -0.059464, 0.615349, -0.0363357
792.0583855869999752, -0.00120691, -0.00255385, -0.000666364, -0.0588993, 0.612431, -0.0345535
792.09169770100004371, -0.00120605, -0.00256864, -0.000674802, -0.0590302, 0.611983, -0.0350241
792.12500982200003818, -0.00120432, -0.00258065, -0.000677732, -0.0587444, 0.611537, -0.0338712
792.15847212400001354, -0.00120369, -0.00258988, -0.000685313, -0.059313, 0.610944, -0.0360655
792.1917841550000503, -0.00121241, -0.00259042, -0.000670788, -0.0595805, 0.610917, -0.0374879
792.22509635699998398, -0.00121104, -0.00259525, -0.000647868, -0.0595358, 0.611897, -0.0380077
792.2584084930000472, -0.00121047, -0.00259968, -0.000622311, -0.0596341, 0.612705, -0.0394438
792.29172066600006019, -0.00121182, -0.00261541, -0.0005967, -0.0598015, 0.613774, -0.0413234
792.32503286400003617, -0.00121192, -0.00261347, -0.000599697, -0.0592603, 0.616017, -0.0388233
792.35834500400005709, -0.00121921, -0.00260215, -0.000596617, -0.0586588, 0.61869, -0.0362983
792.39165717299999869, -0.00122063, -0.0026007, -0.000581109, -0.0585994, 0.620094, -0.0368774
792.42496933699999317, -0.00122669, -0.00259517, -0.000555411, -0.0589246, 0.619973, -0.0395716
792.45828153900004054, -0.00122999, -0.00260476, -0.000537505, -0.0595914, 0.618711, -0.0436526
792.49159367400000065, -0.0012256, -0.00261515, -0.000527052, -0.059938, 0.618715, -0.0459104
792.52505585799997334, -0.00122465, -0.00262251, -0.000510869, -0.0606949, 0.616904, -0.0503035
792.55836799799999426, -0.00122069, -0.00261696, -0.000501963, -0.0618756, 0.611504, -0.0560794
792.59168019499998081, -0.00121249, -0.00263165, -0.000497615, -0.0614874, 0.614745, -0.0546704
792.62499233100004403, -0.00120706, -0.00263218, -0.000513874, -0.0612466, 0.614672, -0.0526775
792.65830453299997771, -0.00119412, -0.00263517, -0.00053291, -0.0619299, 0.611345, -0.0546948
792.69161667299999863, -0.00118851, -0.00264711, -0.000545194, -0.0622359, 0.610864, -0.0554
792.72492883699999311, -0.00118645, -0.00265, -0.000556084, -0.0626202, 0.609683, -0.056428
792.75824103900004047, -0.001181, -0.00264512, -0.00055962, -0.0629901, 0.608171, -0.0575641
792.79155320799998208, -0.00118167, -0.00264061, -0.000555686, -0.0634549, 0.606704, -0.0590729
792.82486534300005587, -0.00117285, -0.00264248, -0.000582251, -0.0637967, 0.605443, -0.0592755
792.85832752700002857, -0.00117008, -0.00264334, -0.000592543, -0.0636407, 0.605751, -0.0588237
792.89163969499998075, -0.00117602, -0.00261993, -0.00059014, -0.0633263, 0.605522, -0.058682
792.92495186400003604, -0.00117326, -0.00262069, -0.00060294, -0.063307, 0.605608, -0.0587649
792.95826400400005696, -0.00116699, -0.00261989, -0.00062506, -0.0632542, 0.605876, -0.0592013
792.99157620200003294, -0.00116664, -0.00262153, -0.000632244, -0.0631553, 0.606627, -0.0597992
793.0248905470000409, -0.00116559, -0.00261216, -0.000650033, -0.0631583, 0.606599, -0.0606121
793.05820704300003854, -0.00116295, -0.00261202, -0.000675416, -0.0630722, 0.607882, -0.0627645
793.09152337499995156, -0.00116016, -0.00261908, -0.000687635, -0.0629647, 0.609652, -0.0652196
793.1248397130000285, -0.00116186, -0.00261547, -0.00069015, -0.0628692, 0.611217, -0.0680921
793.15815657500002089, -0.00116879, -0.00259148, -0.00066596, -0.0628998, 0.60985, -0.0665543
793.19147238000005018, -0.00116134, -0.00258053, -0.000694647, -0.0629477, 0.609859, -0.0688816
793.22493871300002866, -0.0011584, -0.00257019, -0.000697182, -0.0629697, 0.61033, -0.072042
793.25825504600004479, -0.00116033, -0.00255153, -0.000704819, -0.0630506, 0.609817, -0.0753444
793.29157135100001597, -0.00116535, -0.00254077, -0.000720286, -0.0630045, 0.609258, -0.0742916
793.32488767999996071, -0.00117116, -0.00253001, -0.000711839, -0.0630866, 0.60831, -0.0750483
793.35820404599996891, -0.0011791, -0.00252835, -0.000710375, -0.0631535, 0.607381, -0.0762309
793.39152037999997447, -0.00117627, -0.00251862, -0.000689293, -0.0633426, 0.606498, -0.0778003
793.42483668500005933, -0.0011627, -0.0025411, -0.000661345, -0.0636091, 0.607096, -0.0810638
793.45815304600000673, -0.0011604, -0.00254026, -0.000652155, -0.0635178, 0.609429, -0.0782973
793.49146938000001228, -0.00115985, -0.00253725, -0.000648166, -0.0635162, 0.610299, -0.0774848
793.52478571300002841, -0.00115967, -0.00253244, -0.000649212, -0.0634195, 0.611881, -0.0754348
793.55825201799996194, -0.00116098, -0.0025213, -0.00066771, -0.0632137, 0.610944, -0.0734371
793.59156834600003094, -0.0011641, -0.00249817, -0.000696246, -0.0629775, 0.607267, -0.0716482
793.62488471300002857, -0.00116597, -0.00247709, -0.00069611, -0.0629488, 0.607579, -0.0695343
793.6582010460000447, -0.0011654, -0.00246701, -0.000687096, -0.062963, 0.610517, -0.0672782
793.69151735100001588, -0.00116497, -0.00246967, -0.000700287, -0.0625399, 0.618402, -0.0603046
793.72483368500002143, -0.00116463, -0.00246447, -0.000704453, -0.0624562, 0.620215, -0.0582956
793.75815001800003756, -0.001166, -0.00246393, -0.00069965, -0.0624069, 0.623647, -0.0561635
793.79146634599999288, -0.00116299, -0.00246224, -0.000726261, -0.0621677, 0.621222, -0.0553259
793.82478268399995613, -0.00115892, -0.00245629, -0.000750717, -0.0619369, 0.619421, -0.0537946
793.85809901300001457, -0.00116484, -0.00243789, -0.000783832, -0.0615112, 0.620482, -0.0483186
793.89141531799998575, -0.00116638, -0.00243699, -0.00079643, -0.0612135, 0.624993, -0.0435023
793.92488171299999067, -0.00116651, -0.00243832, -0.000795026, -0.0611184, 0.627537, -0.0413682
793.9581980460000068, -0.00116628, -0.00243669, -0.00080135, -0.0608515, 0.63228, -0.0362076
793.99151434600003086, -0.00116456, -0.00242909, -0.000825975, -0.0604695, 0.63565, -0.0303383
794.02483071300002848, -0.00116497, -0.00240938, -0.00087568, -0.060089, 0.63333, -0.0267858
794.05814710300001025, -0.00116653, -0.00240456, -0.000899175, -0.0600467, 0.629214, -0.0284119
794.09146338000005017, -0.00116969, -0.00240109, -0.000901559, -0.0599769, 0.630107, -0.026975
794.12477971299995261, -0.00117398, -0.00238692, -0.000892141, -0.0598898, 0.633148, -0.0230883
794.15809601800003747, -0.00117463, -0.00237081, -0.000884211, -0.0597786, 0.636217, -0.018967
794.19141232300000866, -0.00117062, -0.00236021, -0.000865394, -0.0598336, 0.637823, -0.017351
794.22472867999999835, -0.00117077, -0.00235979, -0.000851693, -0.0597203, 0.64103, -0.0144246
794.25819501800003763, -0.00117103, -0.0023492, -0.000854795, -0.0595516, 0.642742, -0.0110297
794.29151131800006169, -0.00117124, -0.00234281, -0.000857818, -0.0595033, 0.642818, -0.0100243
794.32482768399995621, -0.00117014, -0.00233622, -0.000863649, -0.0595221, 0.641714, -0.0102478
794.35814398900004107, -0.00117096, -0.00232509, -0.00086891, -0.0594607, 0.64154, -0.00883908
794.39146034600003077, -0.00117119, -0.00231403, -0.00087558, -0.0593754, 0.641571, -0.00713501
794.42477665100000195, -0.00117242, -0.00230329, -0.00087938, -0.0593242, 0.641404, -0.00587396
794.45809301300005245, -0.00117385, -0.00229338, -0.000880364, -0.0592965, 0.641173, -0.0049212
794.4914093510000157, -0.00117521, -0.00228415, -0.000881526, -0.0592987, 0.640578, -0.00446964
794.52472571299995252, -0.00117617, -0.002277, -0.000886065, -0.0592443, 0.640575, -0.0034564
794.55804201299997658, -0.00117856, -0.00227191, -0.000890067, -0.0592018, 0.64057, -0.00272542
794.5913583799999742, -0.00117841, -0.0022679, -0.000893039, -0.0591767, 0.64045, -0.00224026
794.62482471299995268, -0.00117791, -0.00226426, -0.00089465, -0.0591718, 0.640213, -0.0020055
794.65814098400005605, -0.00117968, -0.00226061, -0.000894994, -0.0591767, 0.639922, -0.00186958
794.69145737999997436, -0.00118124, -0.00225871, -0.00089534, -0.059193, 0.639605, -0.00197201
794.72477368399995612, -0.00118387, -0.00225695, -0.000894754, -0.0591719, 0.639716, -0.00157457
794.75809001799996167, -0.0011858, -0.00225612, -0.000893668, -0.0591468, 0.639893, -0.00112125
794.79140634600003068, -0.00119134, -0.00225515, -0.000894718, -0.0590882, 0.640315, -0.000311351
794.82472271300002831, -0.00120109, -0.00225238, -0.000900148, -0.0590269, 0.640566, 0.000480601
794.85803901300005236, -0.00121012, -0.00224957, -0.0009023, -0.059002, 0.640533, 0.000864907
794.89135538000004999, -0.00121664, -0.0022464, -0.000901085, -0.0589712, 0.640695, 0.00145271
794.92467167999996036, -0.00122238, -0.00224365, -0.000900692, -0.0589585, 0.640698, 0.00178421
794.95813801799999965, -0.00123067, -0.00224327, -0.000899028, -0.058919, 0.641073, 0.00240456
794.99145438000005015, -0.00123766, -0.00224238, -0.0008991, -0.0588834, 0.641346, 0.00297196
795.02477068400003191, -0.00124796, -0.00224104, -0.000899092, -0.0588455, 0.641582, 0.00354039
795.05808704599996872, -0.00125518, -0.00224042, -0.000897176, -0.0588028, 0.641989, 0.0041856
795.09140337999997428, -0.00126624, -0.00224076, -0.000893622, -0.0587893, 0.642153, 0.00445588
795.12471971299999041, -0.0012777, -0.00224054, -0.000891015, -0.0587679, 0.642341, 0.00482084
795.15803604600000654, -0.00128302, -0.00224113, -0.000885825, -0.0587519, 0.642633, 0.00517695
795.19135234600003059, -0.00129587, -0.00224148, -0.000882097, -0.0587169, 0.643017, 0.00570721
795.22466868399999385, -0.00130524, -0.00224169, -0.000881543, -0.0586872, 0.643224, 0.00614947
795.25798904600003425, -0.00131263, -0.00224254, -0.000881442, -0.0586624, 0.643388, 0.00648127
795.29130134599995472, -0.00132501, -0.0022424, -0.000881582, -0.0586441, 0.643445, 0.0067413
795.32476768000003631, -0.00133242, -0.00224234, -0.000883971, -0.0585975, 0.643743, 0.0073624
795.3580846790000578, -0.0013475, -0.00224445, -0.000884424, -0.058584, 0.64379, 0.00748467
795.39140035100001569, -0.00135798, -0.00224787, -0.000884291, -0.0585901, 0.643706, 0.00738865
795.42471668400003182, -0.00136644, -0.00225049, -0.000884265, -0.0585673, 0.643827, 0.00767885
795.45803304599996864, -0.00137128, -0.00226121, -0.000881516, -0.0586767, 0.642967, 0.00612636
795.49134932200001913, -0.00137738, -0.0022719, -0.000879402, -0.0587657, 0.642128, 0.00485898
795.52466565099996387, -0.00140299, -0.00226842, -0.00088474, -0.0585499, 0.643629, 0.00764939
795.55798204600000645, -0.00140932, -0.00228275, -0.000880809, -0.058629, 0.643075, 0.00647046
795.59129837900002258, -0.00140318, -0.00229188, -0.000882424, -0.0588968, 0.640725, 0.00273803
795.62461471300002813, -0.00140548, -0.00229199, -0.000886124, -0.0589279, 0.640221, 0.00221033
795.65808101300001454, -0.00140762, -0.00228775, -0.000889087, -0.058775, 0.641544, 0.00431869
795.69139737900002274, -0.0014086, -0.00228305, -0.000890795, -0.0586348, 0.642833, 0.00640731
795.72471371300002829, -0.0014063, -0.00228073, -0.000883024, -0.0586151, 0.643423, 0.00702169
795.75803004600004442, -0.00139765, -0.00227999, -0.000865927, -0.0587551, 0.642852, 0.00570228
795.7913463510000156, -0.00139452, -0.0022832, -0.000857129, -0.0588064, 0.642969, 0.00519507
795.82466268400003173, -0.00138883, -0.00229156, -0.000841085, -0.0589022, 0.643315, 0.00412605
795.85797899399995003, -0.00138509, -0.00228911, -0.000825445, -0.0590185, 0.643074, 0.00333035
795.89129534599999261, -0.00138474, -0.00228608, -0.000832281, -0.058928, 0.643862, 0.00478048
795.92461167900000873, -0.00137941, -0.0022931, -0.000818837, -0.0589644, 0.644912, 0.00479214
795.95792801300001429, -0.00138032, -0.00229476, -0.000833113, -0.0588441, 0.646304, 0.00693242
795.99124435099997754, -0.00138322, -0.00229351, -0.000839091, -0.0587984, 0.647476, 0.00876093
796.02471071299999039, -0.00137804, -0.00230273, -0.000818092, -0.0588254, 0.647077, 0.00700488
796.05802701699997215, -0.00138008, -0.00230934, -0.000824614, -0.0588744, 0.649356, 0.0102068
796.0913433509999777, -0.00137698, -0.00232086, -0.000797274, -0.0588915, 0.650175, 0.0107033
796.1246597130000282, -0.00137458, -0.00232345, -0.000784359, -0.0588389, 0.649939, 0.0101254
796.15797601300005226, -0.0013749, -0.00232451, -0.000797721, -0.0588891, 0.650041, 0.00999751
796.19129235100001551, -0.00137343, -0.00232164, -0.000791514, -0.0587747, 0.650076, 0.00990053
796.22460867899997083, -0.00137225, -0.00232761, -0.000790693, -0.0587277, 0.650207, 0.00995548
796.25792505100002927, -0.00137395, -0.00231821, -0.000800644, -0.0590621, 0.649769, 0.00974456
796.29124137899998459, -0.00137104, -0.00232773, -0.000781286, -0.0587814, 0.649669, 0.0111633
796.32455771299999014, -0.00137078, -0.00232202, -0.0007775, -0.0587794, 0.649791, 0.0114866
796.35802401700004793, -0.00137156, -0.00232245, -0.000777437, -0.0588763, 0.64956, 0.0115479
796.39134037899998475, -0.00136942, -0.00231834, -0.000772952, -0.0586699, 0.650025, 0.011968
796.42465674599998238, -0.00137158, -0.00232622, -0.000781277, -0.0590295, 0.649211, 0.0108822
796.45797299800005931, -0.00137091, -0.00233406, -0.000769738, -0.0588103, 0.648292, 0.0125363
796.49128937900002256, -0.00136837, -0.00232414, -0.000760864, -0.0584839, 0.649347, 0.013954
796.52460566000002018, -0.00137, -0.00233294, -0.000765365, -0.0587921, 0.648246, 0.0131783
796.55792201300005217, -0.00136795, -0.0023377, -0.000750589, -0.0583676, 0.647202, 0.0159072
796.59123835100001543, -0.00136485, -0.00233551, -0.000739842, -0.0580438, 0.647392, 0.0180029
796.62455467899997075, -0.00136427, -0.00233287, -0.000742068, -0.0583699, 0.648409, 0.0174784
796.65787104599996837, -0.00136402, -0.00233508, -0.000738744, -0.0582649, 0.647844, 0.0182168
796.69133735100001559, -0.00136162, -0.00232724, -0.000733952, -0.0581217, 0.65006, 0.0195692
796.72465370300005816, -0.00135931, -0.00231471, -0.000728348, -0.0578883, 0.653558, 0.0212628
796.75797004599996853, -0.00135772, -0.00231667, -0.000714171, -0.0573341, 0.652432, 0.0249575
796.79128637899998466, -0.00135565, -0.00230808, -0.000710009, -0.0571748, 0.65658, 0.0266766
796.82460268399995584, -0.00135837, -0.00231316, -0.000714622, -0.0575167, 0.656675, 0.0251779
796.85791901300001427, -0.00136235, -0.00232848, -0.000733708, -0.058513, 0.652013, 0.0190033
796.89123537900002248, -0.00136417, -0.00233966, -0.00073171, -0.0585936, 0.645611, 0.0184823
796.92455171300002803, -0.00137544, -0.00238251, -0.000747133, -0.060504, 0.625173, 0.00768662
796.95786804600004416, -0.00137637, -0.00238232, -0.000753959, -0.060901, 0.625445, 0.00483458
796.99118437900006029, -0.00137728, -0.00238096, -0.000760808, -0.0612659, 0.627772, 0.00229541
797.02450068400003147, -0.00138155, -0.00239036, -0.000773165, -0.0624336, 0.619909, -0.00550678
797.05796702700001788, -0.00138344, -0.0023972, -0.000784114, -0.0633825, 0.615154, -0.0116239
797.09128337900006045, -0.00138446, -0.00239587, -0.000800537, -0.0644558, 0.615523, -0.0195058
797.12459968400003163, -0.0013868, -0.00239807, -0.000819186, -0.0660176, 0.609647, -0.0307606
797.15791604599996845, -0.00138666, -0.00240198, -0.000827066, -0.0668569, 0.602129, -0.0366092
797.19123231699995813, -0.00138661, -0.00239573, -0.000840274, -0.0675159, 0.607868, -0.0419802
797.22454867900000863, -0.0013872, -0.00239428, -0.00085275, -0.0683422, 0.609141, -0.0480289
797.25786504600000626, -0.00138668, -0.0023945, -0.000854148, -0.068922, 0.600275, -0.0525977
797.29118137900002239, -0.00138656, -0.0023901, -0.000844407, -0.0687586, 0.591975, -0.0525008
797.32449767900004645, -0.00138488, -0.00238089, -0.000849682, -0.0690383, 0.593336, -0.0557598
797.35781404600004407, -0.001385, -0.00238579, -0.000849455, -0.0694963, 0.585801, -0.0587391
797.39128038399996967, -0.00138543, -0.00239022, -0.000848223, -0.0696275, 0.582158, -0.059263
797.42459667900004661, -0.00138822, -0.0023965, -0.000848748, -0.069741, 0.580808, -0.0592743
797.45791304600004423, -0.00138979, -0.00240669, -0.000845215, -0.0699423, 0.575519, -0.0597009
797.4912293459999546, -0.00139014, -0.00240885, -0.00084253, -0.0698347, 0.575823, -0.0586522
797.52454568400003154, -0.00139172, -0.00239903, -0.000845148, -0.0696396, 0.580043, -0.0580117
797.55786198900000272, -0.00139396, -0.00240367, -0.000838374, -0.0697503, 0.577233, -0.0586061
797.59117837899998449, -0.00139522, -0.00239487, -0.000839336, -0.069705, 0.578417, -0.0590709
797.62449467900000855, -0.00139603, -0.00239508, -0.000833567, -0.0696772, 0.578575, -0.0588596
797.65781105500002468, -0.00139581, -0.00239656, -0.000827983, -0.0697997, 0.577444, -0.059774
797.6911273790000223, -0.00139656, -0.00240039, -0.0008228, -0.0698861, 0.576885, -0.0601582
797.72444371200003843, -0.00139725, -0.00239821, -0.000819181, -0.0696249, 0.58051, -0.0578246
797.75791004600000633, -0.00139757, -0.00240662, -0.000814066, -0.0695587, 0.582224, -0.0564502
797.79122635099997751, -0.00139921, -0.00242512, -0.000799135, -0.0696803, 0.584505, -0.0557156
797.82454268399999364, -0.00140027, -0.00244487, -0.000785546, -0.0696767, 0.588611, -0.0536202
797.85785904600004415, -0.00140016, -0.00246023, -0.000775258, -0.0698256, 0.590818, -0.0534677
797.89117537900006027, -0.0014, -0.00247328, -0.000768208, -0.0700061, 0.592345, -0.0540775
797.92449167899997065, -0.00139625, -0.00250096, -0.000745629, -0.0710893, 0.593257, -0.061605
797.95780804599996827, -0.00139676, -0.00251501, -0.000730917, -0.0716044, 0.596082, -0.0646505
797.99112434599999233, -0.00139845, -0.00251312, -0.000730506, -0.0714142, 0.596995, -0.0623681
798.02444071200000053, -0.00139919, -0.00251617, -0.000710018, -0.071987, 0.599686, -0.0646327
798.05775701699997171, -0.00140192, -0.00250971, -0.000709938, -0.0715461, 0.600149, -0.0590577
798.09122337899998456, -0.00140366, -0.002498, -0.000715914, -0.0709844, 0.598108, -0.0533392
798.12453968399995574, -0.00140351, -0.00250669, -0.0007103, -0.0712112, 0.60071, -0.0547383
798.15785604600000624, -0.00140185, -0.00251923, -0.000709735, -0.0715735, 0.603723, -0.0598887
798.19117235099997743, -0.00139781, -0.00253372, -0.000693758, -0.0728113, 0.608324, -0.0730431
798.22448868399999355, -0.00139548, -0.00253932, -0.000676758, -0.0739049, 0.610997, -0.0828799
798.25780506000000969, -0.00139336, -0.00253919, -0.000666277, -0.0745047, 0.61154, -0.0875113
798.29112134599995443, -0.00139224, -0.00253751, -0.000655779, -0.0749128, 0.611468, -0.0895024
798.32443768400003137, -0.00139291, -0.00254076, -0.000648978, -0.075022, 0.612307, -0.0887206
798.35775404599996818, -0.00138873, -0.00252478, -0.000636498, -0.0756607, 0.606051, -0.0907563
798.39107037899998431, -0.00138675, -0.00251899, -0.000623823, -0.0762692, 0.604246, -0.094097
798.42438671200000044, -0.00138885, -0.00253179, -0.000622622, -0.0762065, 0.609417, -0.0947679
798.45785301199998685, -0.0013876, -0.00253398, -0.000623506, -0.0761986, 0.610185, -0.0949095
798.49116937899998447, -0.00138851, -0.00253788, -0.000623949, -0.0761731, 0.61269, -0.095927
798.5244857120000006, -0.00138841, -0.00254142, -0.00061543, -0.0764395, 0.615088, -0.0985344
798.55780204600000616, -0.00139067, -0.00255286, -0.00063514, -0.0753984, 0.618343, -0.0920345
798.59111837900002229, -0.00138965, -0.0025471, -0.000640982, -0.0752028, 0.615589, -0.0901733
798.62443471200003842, -0.00138976, -0.00254833, -0.000646556, -0.0749739, 0.615984, -0.0888708
798.65775101200006247, -0.00139165, -0.00255447, -0.000653328, -0.0746849, 0.618443, -0.0879467
798.6910673790000601, -0.00139269, -0.00255843, -0.000671197, -0.0741335, 0.619099, -0.0848667
798.72438371199996254, -0.00139306, -0.00255995, -0.000674238, -0.0740146, 0.619236, -0.0835477
798.75770073600006072, -0.00139381, -0.00257153, -0.000684129, -0.0736103, 0.622083, -0.0800317
798.79116635000002589, -0.00139153, -0.00257106, -0.000692136, -0.0734233, 0.621335, -0.0771948
798.82448267899997063, -0.0013901, -0.00257375, -0.000703272, -0.0731657, 0.621804, -0.073269
798.85779902199999469, -0.00139174, -0.00257898, -0.00070816, -0.0730485, 0.62329, -0.0721327
798.8911153500000637, -0.00139046, -0.00257872, -0.00072102, -0.0729427, 0.623107, -0.0701749
798.92443171200000052, -0.00138886, -0.00257276, -0.000726367, -0.0729602, 0.621721, -0.0695267
798.95774804600000607, -0.00138502, -0.00256443, -0.000739185, -0.0729885, 0.619842, -0.0683159
798.99106434600003013, -0.00138544, -0.00256252, -0.000757684, -0.0729929, 0.619032, -0.0673143
799.02438071200003833, -0.00138754, -0.00256491, -0.000777231, -0.0730064, 0.619597, -0.0660682
799.05769701700000951, -0.00138923, -0.00256726, -0.000799199, -0.0730474, 0.619359, -0.0653753
799.09101334599995425, -0.00139423, -0.00257475, -0.000831791, -0.0731309, 0.619147, -0.0648807
799.12432968400003119, -0.00139232, -0.00256818, -0.000829412, -0.0731507, 0.618519, -0.0646542
799.15779601700000967, -0.00139294, -0.00256652, -0.00084221, -0.0732184, 0.618447, -0.0638887
799.19111237900006017, -0.0013924, -0.00256009, -0.000852035, -0.0732969, 0.617001, -0.06378
799.22442867899997054, -0.0013937, -0.00255859, -0.000861984, -0.0733545, 0.616316, -0.0635815
799.25774504599996817, -0.00139746, -0.00257031, -0.000864006, -0.0733332, 0.617422, -0.0640415
799.29106135000006361, -0.00139949, -0.00255965, -0.000887241, -0.073492, 0.613813, -0.064289
799.32437768399995548, -0.00139817, -0.00255216, -0.000890934, -0.073549, 0.612205, -0.0646457
799.35769401200002449, -0.0013975, -0.0025388, -0.000905869, -0.073664, 0.608622, -0.0650036
799.39101037900002211, -0.00139787, -0.00253037, -0.000913106, -0.0737152, 0.606584, -0.0649364
799.42432671200003824, -0.00139695, -0.00251079, -0.000927772, -0.0738384, 0.601798, -0.0652624
799.45764336900003855, -0.0013963, -0.00250278, -0.0009363, -0.0739028, 0.599604, -0.0660613
799.4911093460000302, -0.00139543, -0.00249057, -0.00094187, -0.0739536, 0.596519, -0.0658642
799.5244257120000384, -0.00139617, -0.00247824, -0.000953547, -0.0739581, 0.592962, -0.0655723
799.55774204600004396, -0.00139613, -0.00247179, -0.000955494, -0.0739797, 0.591155, -0.0652908
799.59105837900006009, -0.0013978, -0.00243699, -0.000975599, -0.0739316, 0.580404, -0.0626327
799.62437468400003127, -0.00139823, -0.00242216, -0.000982568, -0.0739388, 0.575874, -0.0620013
799.65769104599996808, -0.00139936, -0.00241591, -0.000989824, -0.0738609, 0.574078, -0.0618572
799.6910086789999923, -0.00139886, -0.00239267, -0.000997255, -0.0739126, 0.566811, -0.0625605
799.72432371200000034, -0.00139941, -0.00238265, -0.00100232, -0.0738401, 0.563611, -0.0624422
799.7576400460000059, -0.00140086, -0.00237457, -0.00100565, -0.0737637, 0.560628, -0.0617346
799.79095637900002203, -0.00140361, -0.00236228, -0.00101208, -0.0735736, 0.555688, -0.0601441
799.82442268399995555, -0.00140372, -0.00234979, -0.00101057, -0.0736929, 0.549757, -0.060333
799.85773904500001663, -0.00140346, -0.00234534, -0.00100835, -0.073807, 0.547139, -0.0604055
799.89105537900002219, -0.00140745, -0.00233399, -0.0010132, -0.0735695, 0.539466, -0.0552564
799.92437171200003831, -0.00140906, -0.00232912, -0.00101364, -0.0735461, 0.536218, -0.0538397
799.95768804500005444, -0.0014117, -0.00232192, -0.00101484, -0.0734436, 0.531223, -0.0517484
799.99100434499996481, -0.00141505, -0.00232081, -0.00102487, -0.0727377, 0.531011, -0.0462275
800.02432068400003118, -0.00141258, -0.00232729, -0.00102586, -0.0727842, 0.536874, -0.0464479
800.05763704499997857, -0.00141415, -0.00231928, -0.00102078, -0.073248, 0.529885, -0.0466425
800.09095334500000263, -0.00141424, -0.00231824, -0.00101978, -0.0733628, 0.529052, -0.0468132
800.12426971200000025, -0.0014158, -0.00230931, -0.0010153, -0.073633, 0.518242, -0.045896
800.15758604500001638, -0.00141719, -0.0022977, -0.00101092, -0.0737673, 0.502746, -0.044382
800.1910523500000636, -0.00141822, -0.00230684, -0.00101368, -0.0738721, 0.516079, -0.0454664
800.22436868399995546, -0.00142545, -0.0022964, -0.00101084, -0.0742279, 0.503009, -0.0423632
800.25768498800005091, -0.00142733, -0.00229118, -0.00101089, -0.0740257, 0.494758, -0.0395233
800.29100134999998772, -0.00142605, -0.00228441, -0.00100939, -0.0741323, 0.481137, -0.0371111
800.32431767900004616, -0.00142675, -0.00227951, -0.00101224, -0.0735585, 0.470717, -0.031426
800.35763404500005436, -0.00143175, -0.00227608, -0.00101932, -0.07226, 0.462756, -0.0221993
800.39095037900005991, -0.0014332, -0.00227395, -0.0010281, -0.0708132, 0.459114, -0.0136386
800.42426667899997028, -0.00143336, -0.0022749, -0.00103631, -0.0694749, 0.468076, -0.00839486
800.45758301700004722, -0.00143377, -0.00227495, -0.00103948, -0.0686044, 0.473009, -0.00542921
800.49089937899998404, -0.00143381, -0.00227472, -0.00104102, -0.0682733, 0.472689, -0.00387181
800.52436571700002332, -0.00143385, -0.00227453, -0.00104182, -0.068078, 0.473541, -0.00313749
800.55768201199998657, -0.00143363, -0.00227341, -0.00104285, -0.0677851, 0.47842, -0.00302532
800.5909983450000027, -0.00143366, -0.00227274, -0.00104752, -0.0668169, 0.475856, 0.00189536
800.62431467900000825, -0.00143487, -0.00227101, -0.00105536, -0.065346, 0.476579, 0.00887468
800.65763101200002438, -0.00143679, -0.00227002, -0.00106303, -0.0639878, 0.478069, 0.0155862
800.69094737900002201, -0.0014384, -0.00226935, -0.0010708, -0.0625814, 0.476961, 0.0230546
800.72426371200003814, -0.0014408, -0.00226922, -0.00108064, -0.0608079, 0.477495, 0.0332337
800.7575800120000622, -0.00144207, -0.00226927, -0.00108524, -0.0599652, 0.479536, 0.0383058
800.79089639300002545, -0.00144314, -0.00226968, -0.00108894, -0.0592782, 0.48107, 0.0425516
800.82421271199996227, -0.00144287, -0.00227206, -0.00109569, -0.0585597, 0.477147, 0.0485494
800.85752898800001276, -0.00144476, -0.00227215, -0.00110013, -0.0577567, 0.479262, 0.0529696
800.89099535000002561, -0.00144546, -0.00227326, -0.00110024, -0.0575387, 0.482794, 0.0547635
800.92431167899997035, -0.00144661, -0.00227557, -0.00110873, -0.0561652, 0.48623, 0.0638232
800.95762805000003937, -0.00144667, -0.00227779, -0.00111278, -0.0555911, 0.487087, 0.0684005
800.99094439300006343, -0.00144313, -0.00228019, -0.00111584, -0.0555829, 0.483171, 0.0701651
801.02426064999997379, -0.00144223, -0.00228151, -0.00111803, -0.0553869, 0.482154, 0.0721034
801.05757698800005073, -0.00144222, -0.00228267, -0.00111524, -0.0555851, 0.483264, 0.0717335
801.09089337900002192, -0.00143827, -0.00228509, -0.00112171, -0.0553886, 0.478735, 0.0747581
801.12420968300000368, -0.00143822, -0.0022855, -0.00112309, -0.055265, 0.478378, 0.0756607
801.15752601200006211, -0.00143901, -0.00228686, -0.00111992, -0.0554242, 0.480192, 0.075527
801.19084234499996455, -0.00143749, -0.00228819, -0.00112277, -0.0553772, 0.478008, 0.076994
801.22430871200003821, -0.00143683, -0.00228875, -0.00112576, -0.0552356, 0.476633, 0.0782379
801.25762498799997502, -0.00143739, -0.00228919, -0.00112848, -0.0549692, 0.476718, 0.0798541
801.29094135000002552, -0.0014391, -0.00229104, -0.00113976, -0.0539628, 0.476376, 0.0860523
801.32425771199996234, -0.0014395, -0.00229134, -0.00114339, -0.053634, 0.476368, 0.0877593
801.35757401700004721, -0.00144131, -0.00229253, -0.00115316, -0.052822, 0.476498, 0.0925655
801.39089037899998402, -0.00144167, -0.00229304, -0.00115578, -0.0527184, 0.475434, 0.0936624
801.42420667900000808, -0.00144167, -0.00229304, -0.00115578, -0.0527184, 0.475434, 0.0936624
801.45752301200002421, -0.00144595, -0.0022952, -0.00116916, -0.0511408, 0.47959, 0.101673
801.49083934500004034, -0.00144671, -0.00229552, -0.00117411, -0.0507505, 0.47979, 0.103613
801.52415571200003797, -0.0014467, -0.0022953, -0.00118149, -0.0504101, 0.47831, 0.105282
801.55747201200006202, -0.00144815, -0.00229678, -0.00119917, -0.049647, 0.474356, 0.110911
801.590938379000022, -0.00144787, -0.00229672, -0.00120812, -0.0494315, 0.471311, 0.112648
801.62425471200003813, -0.00144789, -0.00229691, -0.0012251, -0.0488671, 0.466798, 0.116443
801.65757101200006218, -0.00145198, -0.00229996, -0.00124572, -0.0475397, 0.466469, 0.12492
801.69088734499996463, -0.00145451, -0.00230108, -0.00125686, -0.0468412, 0.466234, 0.128845
801.72420368300004156, -0.0014569, -0.00230133, -0.00127841, -0.0459072, 0.4629, 0.133993
801.75752004499997838, -0.00146159, -0.0023035, -0.00129923, -0.0448028, 0.461195, 0.140992
801.79083635000006325, -0.00146596, -0.00230541, -0.00131764, -0.0438148, 0.460083, 0.147046
801.82415271200000007, -0.00146877, -0.00230525, -0.00133555, -0.043043, 0.457675, 0.150763
801.85746901200002412, -0.00147442, -0.00230715, -0.00136585, -0.0419757, 0.45224, 0.158833
801.89078534500004025, -0.00148293, -0.00231199, -0.00139083, -0.0403129, 0.45358, 0.168937
801.92425167900000815, -0.00148674, -0.00231267, -0.00140789, -0.0395936, 0.451486, 0.172964
801.95756804500001635, -0.00149249, -0.00231396, -0.00142729, -0.0385035, 0.45088, 0.177846
801.99088431699999546, -0.00149508, -0.00231267, -0.00144343, -0.0379587, 0.447848, 0.179781
802.02420065499995872, -0.00149947, -0.00231352, -0.00145329, -0.0373847, 0.447793, 0.182745
802.05751698799997484, -0.00150572, -0.00231609, -0.00147321, -0.036717, 0.445307, 0.189499
802.09083343099996455, -0.00151446, -0.00231951, -0.00149852, -0.0356458, 0.443329, 0.197627
802.12414971199996216, -0.00151905, -0.00231959, -0.00152023, -0.0350711, 0.438961, 0.201532
802.15746601199998622, -0.00152152, -0.00231924, -0.00153071, -0.0347882, 0.436575, 0.202876
802.19078235000006316, -0.00152624, -0.00232161, -0.00154028, -0.0341617, 0.437013, 0.206436
802.2240986829999656, -0.00152887, -0.00232, -0.00154864, -0.0340616, 0.43394, 0.206048
802.25741606899998715, -0.00152838, -0.00231366, -0.00155682, -0.0346117, 0.426039, 0.201643
802.29088137799999458, -0.00153061, -0.00231165, -0.00156177, -0.034682, 0.422861, 0.200251
802.32419869800003198, -0.00153373, -0.00231147, -0.00156632, -0.0345859, 0.421679, 0.200514
802.35751404500001627, -0.00153859, -0.0023145, -0.00157004, -0.0340946, 0.424371, 0.203934
802.39083034500004032, -0.00154398, -0.00231976, -0.00157171, -0.0334076, 0.429933, 0.209103
802.42414668300000358, -0.00154564, -0.00232293, -0.00157144, -0.0329777, 0.433409, 0.211704
802.45746298300002763, -0.001549, -0.00231991, -0.00157316, -0.0333735, 0.430846, 0.210676
802.49077934499996445, -0.00155069, -0.00231953, -0.00157369, -0.0334128, 0.431053, 0.211117
802.52409571199996208, -0.00155028, -0.00231965, -0.0015731, -0.0333696, 0.432236, 0.211693
802.55741201700004694, -0.00155081, -0.00231753, -0.00157386, -0.0336241, 0.43076, 0.210922
802.59072837799999434, -0.00154987, -0.00232087, -0.00157079, -0.0332614, 0.434098, 0.212059
802.62419465000004948, -0.00154875, -0.00232881, -0.00156775, -0.0323109, 0.440463, 0.215424
802.6575110170000471, -0.00155008, -0.00232975, -0.0015674, -0.032165, 0.440535, 0.21581
802.6908273779999945, -0.00154983, -0.00232968, -0.0015686, -0.0321413, 0.441055, 0.216181
802.72414365500003441, -0.00155374, -0.00232545, -0.00157431, -0.0324939, 0.4373, 0.215595
802.75746004500001618, -0.00155377, -0.00232479, -0.00157501, -0.0325462, 0.437774, 0.215756
802.79077634999998736, -0.001554, -0.00232574, -0.00157372, -0.0324159, 0.438219, 0.216079
802.82409265000001142, -0.00155636, -0.00232678, -0.0015743, -0.0322176, 0.437333, 0.216712
802.85740907399997468, -0.00155843, -0.00232454, -0.00157692, -0.032457, 0.435136, 0.216148
802.89072535000002517, -0.00155884, -0.00232061, -0.00157822, -0.0329656, 0.432489, 0.214496
802.92404171199996199, -0.00155753, -0.00232067, -0.00157609, -0.0330342, 0.43377, 0.214123
802.95750801200006208, -0.00155746, -0.00232134, -0.00157351, -0.0330002, 0.433951, 0.213979
802.99082435000002533, -0.00155627, -0.00232235, -0.00157046, -0.0329081, 0.432873, 0.213299
803.02414071199996215, -0.0015556, -0.00232471, -0.00156769, -0.0326863, 0.434949, 0.213821
803.05745704499997828, -0.00155526, -0.00232259, -0.0015696, -0.0329611, 0.434017, 0.213083
803.09077334500000234, -0.00155702, -0.00232292, -0.00156971, -0.0327578, 0.431566, 0.213761
803.12409005899996828, -0.00155486, -0.00232659, -0.0015679, -0.0324447, 0.436121, 0.214523
803.15740598299998965, -0.00155385, -0.00232874, -0.00156435, -0.0322438, 0.437724, 0.214633
803.19072237800003222, -0.00155527, -0.00232925, -0.00156512, -0.0322177, 0.439439, 0.215096
803.22403867800005628, -0.00155942, -0.00232642, -0.0015743, -0.0321361, 0.43527, 0.217189
803.25735504500005391, -0.00155977, -0.00232765, -0.0015749, -0.0319742, 0.436816, 0.217916
803.29067135000002509, -0.00155672, -0.00232864, -0.00156289, -0.0323116, 0.440639, 0.214306
803.32413767800005644, -0.00155651, -0.00232899, -0.00156113, -0.0323537, 0.441552, 0.213775
803.35745401600001969, -0.00155633, -0.00232891, -0.00156033, -0.0324924, 0.442143, 0.213119
803.39077037799995651, -0.00155511, -0.00232763, -0.00156037, -0.032953, 0.441938, 0.211384
803.4240866879999885, -0.00155366, -0.00232629, -0.00156261, -0.0333155, 0.441014, 0.210338
803.45740304499997819, -0.00155375, -0.00232572, -0.00156606, -0.0333246, 0.440007, 0.21088
803.49071935000006306, -0.00155521, -0.00232688, -0.00156704, -0.0330375, 0.441097, 0.212096
803.52403571199999988, -0.00155598, -0.00232815, -0.00156479, -0.032915, 0.442855, 0.212123
803.55735204500001601, -0.00155693, -0.00232849, -0.00156479, -0.0327888, 0.443177, 0.212668
803.59066837800003213, -0.00155823, -0.00233012, -0.00156678, -0.0325877, 0.444096, 0.213837
803.62398467800005619, -0.0015595, -0.00233041, -0.00156907, -0.0326304, 0.444448, 0.214119
803.65745101599998179, -0.00155882, -0.00232789, -0.00156798, -0.0332277, 0.443385, 0.211901
803.69076737800003229, -0.0015608, -0.00233029, -0.00156693, -0.0325242, 0.445176, 0.214213
803.72408368300000348, -0.00156138, -0.00233165, -0.00156871, -0.03222, 0.445899, 0.215708
803.7574000160000196, -0.00156374, -0.00233326, -0.00156946, -0.0317409, 0.447206, 0.217365
803.79071634499996435, -0.00156424, -0.00233373, -0.00156658, -0.0314864, 0.448119, 0.217618
803.82403267799998048, -0.0015641, -0.00233385, -0.00156582, -0.0314568, 0.448373, 0.217571
803.8573490449999781, -0.00156476, -0.00233356, -0.00156159, -0.0312119, 0.449509, 0.217499
803.89066537799999423, -0.00156431, -0.00233276, -0.00155589, -0.030943, 0.45056, 0.217209
803.92398167800001829, -0.00156474, -0.0023347, -0.00155796, -0.030619, 0.451588, 0.218303
803.95729804500001592, -0.00156656, -0.00233384, -0.00155237, -0.0304817, 0.452703, 0.217796
803.99061434500003998, -0.00156609, -0.00233287, -0.00154785, -0.0304126, 0.453392, 0.217082
804.02408067800001845, -0.00156442, -0.00233161, -0.00154579, -0.0302188, 0.453779, 0.216844
804.05739701200002401, -0.00156426, -0.00233389, -0.00154999, -0.0298748, 0.454664, 0.218075
804.09071334500004014, -0.00156766, -0.00233226, -0.00153664, -0.0296678, 0.45715, 0.216678
804.12402971200003776, -0.00156629, -0.0023284, -0.00153013, -0.0296502, 0.457185, 0.215351
804.15734601600001952, -0.00156753, -0.00233308, -0.00153756, -0.0294493, 0.457939, 0.216862
804.19066237799995633, -0.00156809, -0.00233509, -0.00153878, -0.0293234, 0.458606, 0.217309
804.22397867799998039, -0.00156938, -0.00233955, -0.00154288, -0.0293301, 0.459044, 0.218213
804.25729501600005733, -0.00156922, -0.00234433, -0.00155061, -0.0292015, 0.45958, 0.2193
804.29061134500000207, -0.00157034, -0.00234748, -0.00155119, -0.029094, 0.46044, 0.219736
804.32392771100001028, -0.0015727, -0.00235034, -0.00154759, -0.0291537, 0.46103, 0.219922
804.35739404499997818, -0.00157389, -0.00235203, -0.00154517, -0.0291739, 0.461436, 0.219986
804.39071037799999431, -0.00157453, -0.002351, -0.00154215, -0.0290114, 0.462114, 0.219752
804.42402671100001044, -0.00157498, -0.00235434, -0.00154782, -0.0288716, 0.462593, 0.220167
804.45734304500001599, -0.00157623, -0.00235348, -0.0015394, -0.0287317, 0.463607, 0.219858
804.49065934500004005, -0.00157596, -0.00235537, -0.00154503, -0.0287264, 0.463472, 0.220088
804.52397567800005618, -0.00157687, -0.00236567, -0.0015577, -0.0287627, 0.463641, 0.221051
804.55729201099995862, -0.00157734, -0.00236927, -0.00155968, -0.0286586, 0.464251, 0.221273
804.59060837799995625, -0.0015786, -0.00237587, -0.00156593, -0.0284238, 0.465266, 0.221496
804.6239246779999803, -0.00157931, -0.00237354, -0.00156901, -0.0281404, 0.465838, 0.22105
804.65724104499997793, -0.00158033, -0.00236861, -0.00156259, -0.0280291, 0.466059, 0.220725
804.69055734500000199, -0.00158006, -0.00237954, -0.00157548, -0.0279367, 0.466677, 0.221071
804.72402367799998046, -0.00158114, -0.00238425, -0.00157651, -0.027849, 0.467178, 0.221235
804.75734001099999659, -0.00157946, -0.00237912, -0.00157454, -0.0278686, 0.466867, 0.221019
804.79065637799999422, -0.0015731, -0.00238197, -0.00158192, -0.0279228, 0.466675, 0.22094
804.8239726829999654, -0.0015712, -0.00238557, -0.00159349, -0.02821, 0.466085, 0.221001
804.8572890450000159, -0.0015713, -0.00238647, -0.00159537, -0.0283018, 0.465903, 0.221017
804.89060534999998708, -0.00157061, -0.00239161, -0.0015937, -0.0282865, 0.466137, 0.221235
804.92392171100004816, -0.00157077, -0.00239556, -0.00160268, -0.02842, 0.46593, 0.22106
804.95723804500005372, -0.0015701, -0.00240227, -0.00160838, -0.0284339, 0.465946, 0.220953
804.99055437799995616, -0.00157226, -0.00240402, -0.00160177, -0.0283046, 0.466256, 0.22127
805.02387071099997229, -0.00157006, -0.00240011, -0.00160377, -0.0283242, 0.466155, 0.221121
805.05733701099995869, -0.00157091, -0.0024075, -0.0016026, -0.0279807, 0.46662, 0.221288
805.09065334499996425, -0.00157104, -0.00241573, -0.00159645, -0.0279677, 0.466787, 0.221749
805.12396967799998038, -0.00157123, -0.00240614, -0.00159699, -0.0279132, 0.466787, 0.221602
805.157286044999978, -0.00156995, -0.00241593, -0.00160389, -0.0280284, 0.466618, 0.221333
805.19060234500000206, -0.00156928, -0.00242003, -0.00160479, -0.0280649, 0.466578, 0.221318
805.22391867800001819, -0.00157006, -0.00241831, -0.00160053, -0.0279041, 0.46668, 0.221562
805.25723498800005018, -0.00156869, -0.00242859, -0.00160487, -0.0279084, 0.466494, 0.221376
805.29055134500003987, -0.00156724, -0.00243764, -0.00159739, -0.0278929, 0.466498, 0.221918
805.323867678000056, -0.00156508, -0.00245115, -0.00159483, -0.0278942, 0.466238, 0.222134
805.35718416800000341, -0.00156358, -0.00245995, -0.00158477, -0.0277593, 0.466158, 0.222887
805.39050037799995607, -0.00156192, -0.0024639, -0.00158221, -0.0277274, 0.46607, 0.223083
805.42396671100004824, -0.0015616, -0.00247176, -0.00157846, -0.027702, 0.46586, 0.223354
805.45728312100004587, -0.00155994, -0.00247492, -0.00158027, -0.0277613, 0.465744, 0.22319
805.49059934499996416, -0.00155466, -0.00247869, -0.00158662, -0.0282455, 0.46599, 0.222506
805.52391571099997236, -0.00155287, -0.00247892, -0.00158738, -0.0283702, 0.466134, 0.222419
805.55723198299995147, -0.00155242, -0.00248714, -0.00158844, -0.0284565, 0.465787, 0.222258
805.59054837799999405, -0.00155129, -0.0024966, -0.00159399, -0.028529, 0.465202, 0.22177
805.62386471100001017, -0.00155178, -0.00250099, -0.00159171, -0.0284189, 0.464831, 0.221963
805.65718101100003423, -0.00154938, -0.00251482, -0.00159591, -0.0286145, 0.464177, 0.221493
805.69049737800003186, -0.00154783, -0.00251771, -0.00159897, -0.0287529, 0.464132, 0.221177
805.72381367800005592, -0.00154523, -0.00251902, -0.00160084, -0.028961, 0.46434, 0.220915
805.75728001100003439, -0.00154423, -0.00251613, -0.00160508, -0.0290526, 0.464584, 0.220568
805.79059634899999764, -0.00154284, -0.00250492, -0.00161395, -0.029079, 0.465159, 0.219942
805.82391271100004815, -0.0015353, -0.00252524, -0.00164031, -0.0295586, 0.463696, 0.217493
805.85722901600001933, -0.00153049, -0.00252941, -0.00165971, -0.0300073, 0.46363, 0.215725
805.89054534499996407, -0.00152626, -0.00254186, -0.00167531, -0.0303678, 0.462851, 0.214225
805.92386171099997227, -0.00152067, -0.00257507, -0.00169158, -0.0309667, 0.460781, 0.212348
805.95717804499997783, -0.00151946, -0.00259295, -0.00169505, -0.0310722, 0.45933, 0.21186
805.99049437799999396, -0.00151846, -0.00261319, -0.00169443, -0.0310268, 0.457406, 0.211739
806.02381071100001009, -0.00151648, -0.00263607, -0.00169549, -0.0310759, 0.455335, 0.21142
806.05712704500001564, -0.00151296, -0.00266701, -0.00171436, -0.0315652, 0.452757, 0.209273
806.09059337799999412, -0.00150933, -0.00267816, -0.00173268, -0.0319161, 0.451784, 0.207481
806.12390971100001025, -0.00150558, -0.00271478, -0.00174919, -0.032419, 0.448544, 0.205475
806.15722601599998143, -0.00150634, -0.00275246, -0.00174896, -0.0325157, 0.444688, 0.204921
806.19054237800003193, -0.00151019, -0.00278393, -0.00173522, -0.0322979, 0.441187, 0.205726
806.22385871100004806, -0.00150982, -0.00281647, -0.00174482, -0.0325178, 0.437583, 0.20428
806.25717501600001924, -0.00151126, -0.00285293, -0.00175117, -0.0326537, 0.433339, 0.203001
806.29049137799995606, -0.0015133, -0.00286624, -0.00174009, -0.032312, 0.431335, 0.203751
806.32380767799998011, -0.00151397, -0.0028802, -0.0017467, -0.0323492, 0.429416, 0.20278
806.35712404499997774, -0.00151487, -0.00288159, -0.00173954, -0.0322162, 0.429202, 0.203436
806.3904403450000018, -0.0015175, -0.0028977, -0.00175338, -0.032732, 0.427826, 0.201851
806.42375668299996505, -0.00151986, -0.00292269, -0.00180255, -0.0338174, 0.425199, 0.196682
806.4572230449999779, -0.00152097, -0.00292901, -0.00180923, -0.0339287, 0.424373, 0.195926
806.49053931599996758, -0.00152302, -0.00294073, -0.00179278, -0.0337304, 0.423135, 0.197354
806.52385742100000243, -0.0015255, -0.00295551, -0.00177757, -0.0334958, 0.421387, 0.198376
806.55717204400002629, -0.00152561, -0.00295541, -0.0017763, -0.0334802, 0.421417, 0.198511
806.59048834899999747, -0.00152808, -0.00295835, -0.00177225, -0.033519, 0.421224, 0.199015
806.62380468300000302, -0.00153073, -0.00296591, -0.00175162, -0.0332839, 0.420587, 0.200828
806.65712101099995834, -0.00153136, -0.00296063, -0.00174546, -0.0332527, 0.421308, 0.201599
806.69043734900003528, -0.00153154, -0.00296092, -0.00173837, -0.0331786, 0.421387, 0.202299
806.7237537109999721, -0.00153473, -0.00297188, -0.00173535, -0.0332068, 0.420205, 0.202556
806.75707004399998823, -0.00153698, -0.00297142, -0.001749, -0.033409, 0.420018, 0.201341
806.79053634900003544, -0.00153965, -0.00296943, -0.00175865, -0.0335342, 0.420034, 0.200441
806.82385271099997226, -0.00154234, -0.00298976, -0.00174667, -0.0333732, 0.41811, 0.200982
806.85716904399998839, -0.00154244, -0.00299111, -0.00174546, -0.033356, 0.417997, 0.201039
806.89048537799999394, -0.00153997, -0.0029877, -0.0017453, -0.0333559, 0.418342, 0.20112
806.92380171100001007, -0.00154072, -0.00298657, -0.00174684, -0.0333679, 0.418415, 0.200971
806.9571180440000262, -0.00154199, -0.00298553, -0.00174983, -0.0333857, 0.418476, 0.200669
806.99043434400005026, -0.00154039, -0.00298731, -0.00174315, -0.0333487, 0.418396, 0.201311
807.02374407800004974, -0.00154114, -0.00298817, -0.00173997, -0.0333184, 0.418415, 0.201439
807.05704564300003767, -0.00154311, -0.00298503, -0.00174522, -0.0332884, 0.418816, 0.200369
807.09034775400004946, -0.00154829, -0.00298546, -0.00174143, -0.0332941, 0.418677, 0.200725
807.12379970200004209, -0.00154805, -0.00298524, -0.00174106, -0.0332934, 0.418691, 0.200768
807.15710183800001687, -0.0015472, -0.00298614, -0.00174182, -0.0332747, 0.418723, 0.200538
807.19040387799998371, -0.00154892, -0.00298156, -0.00174348, -0.0333052, 0.41885, 0.20062
807.22370595699999285, -0.00155105, -0.00297713, -0.00174197, -0.0333384, 0.418902, 0.201025
807.25700803100005487, -0.0015501, -0.0029806, -0.00173786, -0.0333401, 0.41874, 0.201359
807.29031013300004815, -0.00154949, -0.00298476, -0.0017311, -0.0333589, 0.418472, 0.201983
807.32361220699999649, -0.0015512, -0.00298258, -0.00173122, -0.0333732, 0.418454, 0.202144
807.35691425699997126, -0.00155431, -0.00297197, -0.00173098, -0.0334253, 0.418537, 0.202464
807.39021632200001477, -0.00155352, -0.0029736, -0.00173111, -0.0334174, 0.418533, 0.202392
807.42351842899995518, -0.00155583, -0.00296516, -0.00173127, -0.0334403, 0.418605, 0.202337
807.45697041000005356, -0.00155735, -0.00296228, -0.00172853, -0.0334776, 0.418486, 0.20261
807.4902724840000019, -0.00156137, -0.0029508, -0.00173685, -0.0334023, 0.418627, 0.202374
807.52357452499995816, -0.00156035, -0.00295539, -0.00173611, -0.0333857, 0.418879, 0.201787
807.55687666100004662, -0.00155764, -0.0029567, -0.00173515, -0.0333982, 0.418952, 0.201478
807.59017905400003201, -0.00156143, -0.00294846, -0.00173344, -0.0334374, 0.41858, 0.201824
807.62348080900005698, -0.00156222, -0.002948, -0.00173301, -0.0334434, 0.418517, 0.201949
807.65678284900002382, -0.0015631, -0.00294484, -0.00173328, -0.0334389, 0.418345, 0.202039
807.69008495599996422, -0.00156815, -0.00293783, -0.0017323, -0.0334431, 0.417922, 0.202098
807.72338699700003417, -0.00156904, -0.00294222, -0.00173002, -0.0334959, 0.418118, 0.202043
807.75668907600004331, -0.00157123, -0.00293532, -0.00173101, -0.0334432, 0.417648, 0.20219
807.7899911780000366, -0.00157117, -0.00293283, -0.00173285, -0.0333813, 0.417652, 0.202127
807.8234431550000636, -0.00157259, -0.00292957, -0.0017305, -0.03342, 0.417146, 0.202111
807.856745262000004, -0.00157053, -0.00292083, -0.00172709, -0.0334728, 0.415835, 0.20212
807.89004733599995234, -0.00157089, -0.00291805, -0.00172632, -0.033467, 0.415497, 0.202027
807.92334941000001436, -0.00157169, -0.00291775, -0.00172595, -0.033467, 0.415451, 0.202014
807.95665148399996269, -0.00157201, -0.00291449, -0.00172454, -0.0334727, 0.414883, 0.201948
807.98995355800002471, -0.00157305, -0.00291143, -0.00172205, -0.0335127, 0.414086, 0.201977
808.02326184499997908, -0.00157528, -0.0029036, -0.00171986, -0.0334503, 0.412862, 0.202037
808.05657861600002434, -0.00157561, -0.00290108, -0.0017184, -0.0334599, 0.412199, 0.202115
808.0898949160000484, -0.0015754, -0.00290086, -0.00171837, -0.0334589, 0.412166, 0.202062
808.12321125000005395, -0.00157507, -0.00288562, -0.00170453, -0.033672, 0.406566, 0.201769
808.1565275880000172, -0.00157376, -0.0028787, -0.00169933, -0.0337262, 0.404013, 0.201888
808.18999395000003005, -0.00157103, -0.00287219, -0.00169553, -0.0337238, 0.402101, 0.201327
808.22331028300004618, -0.00156769, -0.0028664, -0.00169526, -0.0336006, 0.401112, 0.201103
808.25662658800001736, -0.00156957, -0.0028653, -0.00168696, -0.0338804, 0.398125, 0.200892
808.28994291599997268, -0.00156708, -0.00286373, -0.00167925, -0.0340961, 0.394335, 0.201692
808.32325924999997824, -0.00156403, -0.00286203, -0.00167324, -0.0342352, 0.391265, 0.20177
808.35657558800005518, -0.00156374, -0.00286158, -0.00166669, -0.0344379, 0.388681, 0.200488
808.38989194999999199, -0.00156208, -0.00286185, -0.00166053, -0.0346382, 0.385869, 0.199848
808.42320825399997375, -0.00156349, -0.00286317, -0.00165852, -0.0347274, 0.385059, 0.199747
808.45652461600002425, -0.00156861, -0.00286402, -0.00165945, -0.0347014, 0.384115, 0.201648
808.48984095000002981, -0.00156692, -0.00285962, -0.00166147, -0.0343311, 0.382776, 0.203237
808.52315725000005386, -0.00157002, -0.0028571, -0.00166223, -0.0341369, 0.382272, 0.203711
808.5566236109999636, -0.00156669, -0.00285377, -0.00166407, -0.034023, 0.384211, 0.204176
808.58993992099999559, -0.00156668, -0.00285138, -0.00166467, -0.0337637, 0.383645, 0.20534
808.62325625400001172, -0.0015615, -0.00284682, -0.00166814, -0.0333265, 0.383215, 0.206869
808.65657261600006223, -0.00156415, -0.0028475, -0.0016688, -0.0332666, 0.382079, 0.207685
808.68988894999995409, -0.00156396, -0.00284923, -0.00166923, -0.0333165, 0.38134, 0.20791
808.72320528299997022, -0.00156234, -0.00284658, -0.00167042, -0.0330691, 0.381009, 0.209486
808.75652161599998635, -0.00156167, -0.00284528, -0.00167069, -0.032981, 0.38109, 0.210061
808.78983794900000248, -0.00156372, -0.00284783, -0.00166949, -0.0333077, 0.381398, 0.208809
808.82315428300000804, -0.00156162, -0.00284225, -0.00166957, -0.0330985, 0.383297, 0.209197
808.85647058799997922, -0.00156099, -0.00284115, -0.00167007, -0.033101, 0.383571, 0.20982
808.88993692099995769, -0.00156226, -0.0028459, -0.00167129, -0.0330417, 0.380821, 0.211296
808.92325325399997382, -0.00155974, -0.00284314, -0.00167221, -0.0327465, 0.380891, 0.212608
808.95656958799997938, -0.00155612, -0.00284036, -0.00167379, -0.0324132, 0.380809, 0.214437
808.98988594900004045, -0.00155531, -0.00284113, -0.00167494, -0.0321798, 0.379713, 0.215989
809.02320225400001164, -0.00155577, -0.00284224, -0.00167485, -0.0321363, 0.379125, 0.216344
809.05651858800001719, -0.00155645, -0.00284356, -0.00167551, -0.0321828, 0.378633, 0.21653
809.08983494899996458, -0.00155477, -0.00283794, -0.0016742, -0.032034, 0.380495, 0.216657
809.12315128299997014, -0.00155315, -0.00283707, -0.00167423, -0.0317674, 0.38037, 0.21778
809.15646761599998626, -0.0015526, -0.00283917, -0.00167521, -0.0316074, 0.37933, 0.218869
809.18978391600001032, -0.0015512, -0.00283528, -0.00167405, -0.0314516, 0.380599, 0.219305
809.22325025400004961, -0.00155088, -0.0028344, -0.00167365, -0.031427, 0.380883, 0.219145
809.25656658800005516, -0.00155162, -0.00283846, -0.00167524, -0.0313648, 0.3793, 0.220524
809.28988291600001048, -0.00155096, -0.00283201, -0.00167199, -0.0315539, 0.381992, 0.219598
809.32319925399997373, -0.00155071, -0.00282699, -0.00166855, -0.0317652, 0.383989, 0.217497
809.35651561600002424, -0.00154799, -0.00282268, -0.00166712, -0.0314584, 0.385356, 0.218049
809.3898319160000483, -0.00154568, -0.00281797, -0.00166508, -0.0313583, 0.387132, 0.217921
809.42314825400001155, -0.00154595, -0.002816, -0.00166332, -0.031481, 0.387679, 0.216445
809.45646461600006205, -0.00154473, -0.00281234, -0.00166167, -0.0313742, 0.389076, 0.216312
809.48978092100003323, -0.00154335, -0.00281031, -0.00166036, -0.0313779, 0.389883, 0.215971
809.52309747799995421, -0.00154221, -0.00281025, -0.00166014, -0.0314792, 0.389876, 0.215608
809.5564135869999518, -0.00154431, -0.00281317, -0.00166232, -0.0314888, 0.388698, 0.216382
809.58987994899996465, -0.00154497, -0.00281448, -0.00166304, -0.03154, 0.388164, 0.216565
809.62319628299997021, -0.00154484, -0.00281447, -0.00166363, -0.0313711, 0.388486, 0.217449
809.65651258699995196, -0.00154354, -0.00281351, -0.00166289, -0.0313163, 0.388955, 0.217453
809.68982891600001039, -0.00154181, -0.00281195, -0.00166057, -0.0313998, 0.38939, 0.21684
809.72314522099998158, -0.00153973, -0.00281033, -0.00165923, -0.0314626, 0.389794, 0.215958
809.75646159200005059, -0.00153774, -0.00280941, -0.00165861, -0.0313711, 0.390376, 0.216021
809.78977792099999533, -0.00153717, -0.0028098, -0.00165845, -0.0313559, 0.390408, 0.216303
809.82309428300004583, -0.00153929, -0.00281248, -0.00165998, -0.0312201, 0.390168, 0.217785
809.85641058700002759, -0.00154045, -0.00281443, -0.00166123, -0.0310363, 0.390393, 0.219336
809.88972694899996441, -0.00153949, -0.00281535, -0.00166155, -0.0309441, 0.390671, 0.220002
809.92319322100001955, -0.00153903, -0.0028154, -0.00166178, -0.0309107, 0.390775, 0.220038
809.95650958700002775, -0.00153786, -0.00281499, -0.00166132, -0.0309103, 0.390916, 0.219851
809.98982594899996457, -0.00153911, -0.00281611, -0.001663, -0.0308835, 0.39064, 0.22017
810.02314224500003093, -0.00153949, -0.00281701, -0.00166396, -0.0308051, 0.390718, 0.220409
810.05645861599998625, -0.00153801, -0.00281684, -0.00166316, -0.0308197, 0.390752, 0.220199
810.08977492099995743, -0.00153693, -0.00281737, -0.00166219, -0.0307935, 0.391015, 0.2204
810.12309124900002644, -0.00153844, -0.00281783, -0.00166351, -0.0307883, 0.390818, 0.220398
810.15640758699998969, -0.00154001, -0.00281927, -0.00166387, -0.0307303, 0.390933, 0.220841
810.18972394900004019, -0.00154224, -0.0028212, -0.00166366, -0.0306408, 0.391213, 0.221398
810.22304028300004575, -0.00154365, -0.00282377, -0.00166521, -0.0305675, 0.391261, 0.221992
810.2563565870000275, -0.00154489, -0.00282588, -0.00166711, -0.0304619, 0.391457, 0.222362
810.2898229209999954, -0.00154391, -0.00283005, -0.00166855, -0.0303338, 0.391821, 0.223279
810.32313924900006441, -0.00154419, -0.00282894, -0.00166955, -0.0303505, 0.391664, 0.222976
810.35645561600006204, -0.00154298, -0.00283073, -0.00167114, -0.0302121, 0.392029, 0.223113
810.38977194899996448, -0.00154147, -0.00283284, -0.00167247, -0.0301276, 0.392266, 0.22345
810.42308828299997003, -0.00154327, -0.00283202, -0.00167329, -0.0301795, 0.391954, 0.223324
810.45640458699995179, -0.00154206, -0.00283644, -0.00167345, -0.0300473, 0.392415, 0.223963
810.48972094900000229, -0.00154079, -0.00284517, -0.00167341, -0.0298704, 0.393004, 0.225266
810.52303725399997347, -0.00154074, -0.00284423, -0.00167272, -0.0299004, 0.392946, 0.225196
810.5563535869999896, -0.00154158, -0.00284328, -0.00167334, -0.0299339, 0.392792, 0.225089
810.58966992099999516, -0.00154032, -0.00284832, -0.00167298, -0.029915, 0.392843, 0.225741
810.62313625399997363, -0.00154044, -0.00285014, -0.00167249, -0.0299708, 0.392706, 0.226084
810.65645258699998976, -0.00153903, -0.00284742, -0.00166866, -0.0299813, 0.392873, 0.225959
810.68976892099999532, -0.00153866, -0.00284745, -0.00166736, -0.0299753, 0.392952, 0.225995
810.72308528300004582, -0.00153714, -0.00284735, -0.00166676, -0.0300359, 0.392818, 0.226095
810.75640161600006195, -0.00153342, -0.00285211, -0.00166751, -0.0300742, 0.392668, 0.226529
810.78971794899996439, -0.0015306, -0.00285625, -0.00166552, -0.0301103, 0.392603, 0.226958
810.82303424899998845, -0.00152868, -0.00285863, -0.001664, -0.030139, 0.392552, 0.227211
810.856350582999994, -0.00152891, -0.00285742, -0.00166654, -0.0301773, 0.392416, 0.22708
810.88966694900000221, -0.00152898, -0.00285714, -0.00166953, -0.0302506, 0.392207, 0.227039
810.92298324900002626, -0.00152341, -0.00286702, -0.00166816, -0.0301901, 0.392134, 0.227443
810.95629955900005825, -0.00152036, -0.00287511, -0.00167331, -0.030137, 0.391928, 0.227431
810.98976594900000237, -0.00151446, -0.00288533, -0.0016735, -0.0302402, 0.391462, 0.227883
811.02308224900002642, -0.00151427, -0.00288531, -0.0016735, -0.0304038, 0.391182, 0.228063
811.05639862099997117, -0.00151197, -0.00288901, -0.00167462, -0.0304658, 0.390938, 0.228147
811.08971488700001373, -0.00150657, -0.0028953, -0.0016724, -0.0305556, 0.390585, 0.228459
811.12303124900006424, -0.00150497, -0.00289884, -0.00167281, -0.0306038, 0.390361, 0.228524
811.15634758199996668, -0.00150861, -0.00289191, -0.00167213, -0.0305827, 0.390723, 0.228476
811.1896639489999643, -0.00150876, -0.00288875, -0.00166946, -0.0304751, 0.391029, 0.228516
811.22298028199998043, -0.00150458, -0.00289318, -0.00166296, -0.0306655, 0.390689, 0.229112
811.25629661599998599, -0.00151264, -0.00287995, -0.00166415, -0.030605, 0.391483, 0.228977
811.28961294900000212, -0.00151532, -0.0028727, -0.00166076, -0.0305179, 0.392024, 0.229134
811.32307924899998852, -0.00151954, -0.00286492, -0.0016615, -0.0305821, 0.392462, 0.22914
811.35639558699995177, -0.00152642, -0.00285308, -0.0016651, -0.0306939, 0.393131, 0.229053
811.38971194900000228, -0.00152491, -0.00285461, -0.00166383, -0.0306962, 0.393037, 0.229137
811.42302825399997346, -0.0015321, -0.00284604, -0.00167357, -0.0308022, 0.393549, 0.228583
811.45634461600002396, -0.00154821, -0.0028263, -0.00169365, -0.0309929, 0.394828, 0.227447
811.48966095399998721, -0.00155958, -0.00281377, -0.00170838, -0.0310561, 0.395668, 0.226529
811.52297725400001127, -0.00156722, -0.00280292, -0.00171818, -0.031204, 0.396472, 0.226006
811.55629415900000367, -0.00157297, -0.00279533, -0.00173172, -0.031384, 0.397004, 0.22521
811.58961040099995898, -0.00157328, -0.0027953, -0.00173714, -0.0316227, 0.397004, 0.224995
811.62292625400004908, -0.00156457, -0.00280686, -0.0017298, -0.0314465, 0.396003, 0.225326
811.6562426159999859, -0.00156913, -0.00280008, -0.00173304, -0.0312184, 0.396581, 0.224955
811.68970894899996438, -0.00156816, -0.00280117, -0.0017354, -0.03116, 0.396461, 0.224722
811.72302528199998051, -0.00156421, -0.00280806, -0.00173641, -0.0312652, 0.395783, 0.224658
811.75634158699995169, -0.00155882, -0.00281731, -0.00174302, -0.031438, 0.394859, 0.224158
811.78965943499997593, -0.00155455, -0.00282496, -0.00175789, -0.031557, 0.394076, 0.222983
811.82297428200001832, -0.00154879, -0.00283639, -0.00177239, -0.0316704, 0.392827, 0.221772
811.85629055900005824, -0.0015391, -0.0028548, -0.00179293, -0.032028, 0.390884, 0.220143
811.88960694900004, -0.00153291, -0.00286753, -0.00180488, -0.0322075, 0.389492, 0.219142
811.92292325400001118, -0.00152714, -0.00288091, -0.00181906, -0.032382, 0.387983, 0.217952
811.95623967799997445, -0.00152353, -0.0028928, -0.00182998, -0.0325968, 0.386643, 0.21707
811.98955594899996413, -0.00152059, -0.00290344, -0.00183857, -0.0327367, 0.385362, 0.216374
812.02302224900006422, -0.00152083, -0.00290566, -0.00183378, -0.0325503, 0.384899, 0.216745
812.05633862499996667, -0.0015196, -0.00291903, -0.00184085, -0.0326725, 0.383105, 0.216315
812.08965494899996429, -0.00151975, -0.00292414, -0.00184226, -0.0326425, 0.38237, 0.216215
812.12297124899998835, -0.0015196, -0.00292142, -0.0018395, -0.0325556, 0.382715, 0.216417
812.15628758200000448, -0.00152007, -0.00292374, -0.00183915, -0.0325161, 0.382359, 0.216424
812.1896039490000021, -0.00152096, -0.00293068, -0.00184125, -0.0325243, 0.381366, 0.216275
812.22292028200001823, -0.00151976, -0.00292502, -0.00183625, -0.0323563, 0.382145, 0.216619
812.25623661600002379, -0.00152091, -0.00292669, -0.00183691, -0.0323354, 0.381904, 0.216529
812.28955294900003992, -0.00152194, -0.002928, -0.00183727, -0.0323764, 0.381713, 0.216511
812.32286928200005605, -0.00152244, -0.00292767, -0.00183525, -0.0323874, 0.381743, 0.21673
812.35633558200004245, -0.00152471, -0.00293275, -0.00183444, -0.032303, 0.381036, 0.216836
812.38965188700001363, -0.00152725, -0.00293866, -0.00184198, -0.032385, 0.380229, 0.216174
812.42296828200005621, -0.00152858, -0.00294622, -0.00184801, -0.0324427, 0.379156, 0.215684
812.45628461600006176, -0.00152858, -0.00294622, -0.00184801, -0.0324427, 0.379156, 0.215684
812.48960092000004352, -0.00152936, -0.00294739, -0.0018501, -0.0324829, 0.378982, 0.215499
812.52291728199998033, -0.00152936, -0.00294739, -0.0018501, -0.0324829, 0.378982, 0.215499
812.55623358200000439, -0.00153133, -0.00294753, -0.00185332, -0.03254, 0.378928, 0.215141
812.58954994900000202, -0.00147996, -0.00294882, -0.00176623, -0.0309296, 0.380191, 0.224491
812.62286631999995734, -0.00148312, -0.00294942, -0.00177205, -0.0309865, 0.380089, 0.223839
812.65618258699998933, -0.00149711, -0.002952, -0.00179421, -0.0314008, 0.379343, 0.221546
812.68949894900003983, -0.00149989, -0.00295055, -0.00179677, -0.0315129, 0.379377, 0.221226
812.72296528200001831, -0.00149986, -0.00294896, -0.0017958, -0.0315595, 0.379509, 0.221289
812.75628161600002386, -0.00150069, -0.00294853, -0.00179627, -0.0315975, 0.379525, 0.221226
812.78959794900003999, -0.00150422, -0.00294698, -0.00180033, -0.0316815, 0.379548, 0.220757
812.82291425400001117, -0.00150503, -0.00294332, -0.00179815, -0.0317793, 0.379893, 0.220804
812.85623061600006167, -0.00150129, -0.00294377, -0.00179179, -0.0316696, 0.380034, 0.22139
812.88954691599997204, -0.0015051, -0.00293777, -0.00179527, -0.0318495, 0.380393, 0.220853
812.92286325400004898, -0.00150688, -0.00294036, -0.00179788, -0.0316557, 0.380188, 0.220613
812.9561796159999858, -0.00150394, -0.00294694, -0.00179485, -0.0313369, 0.379888, 0.221048
812.98949589200003629, -0.00150343, -0.0029475, -0.00179166, -0.0312088, 0.380029, 0.221267
813.02281225399997311, -0.00150223, -0.00295113, -0.00179108, -0.0310922, 0.379821, 0.221464
813.05627858200000446, -0.00150544, -0.00294883, -0.00179106, -0.0311558, 0.379906, 0.221336
813.08959491999996771, -0.00150299, -0.00295276, -0.00179087, -0.0311081, 0.379713, 0.221549
813.12291125399997327, -0.00150037, -0.00295486, -0.00179037, -0.0310732, 0.37966, 0.221677
813.15622758200004228, -0.001503, -0.00295306, -0.00178999, -0.0311694, 0.379679, 0.221614
813.18954392000000553, -0.00149532, -0.00296001, -0.00178723, -0.0311672, 0.379534, 0.222003
813.22286022000002959, -0.00149225, -0.0029627, -0.00178713, -0.0311347, 0.379472, 0.222106
813.25617658700002721, -0.00149238, -0.0029626, -0.0017827, -0.0311999, 0.379674, 0.222148
813.28949370099996941, -0.00148967, -0.00296598, -0.00178134, -0.031256, 0.379604, 0.222278
813.32280928199998016, -0.00148906, -0.0029666, -0.00177693, -0.0313277, 0.379745, 0.222313
813.35612561499999629, -0.00148773, -0.0029677, -0.00177465, -0.0313396, 0.379887, 0.222333
813.38944191999996747, -0.00148521, -0.00296939, -0.00177373, -0.0313343, 0.379957, 0.22237
813.42290825400004906, -0.00148374, -0.00297001, -0.00177134, -0.0313159, 0.380175, 0.222358
813.45622461499999645, -0.00148206, -0.0029721, -0.00177186, -0.0312726, 0.380191, 0.222418
813.489540949000002, -0.00148086, -0.00297251, -0.00177056, -0.0312563, 0.380314, 0.22241
813.52285728200001813, -0.00147359, -0.00297872, -0.00176331, -0.0311596, 0.38106, 0.222426
813.55617361500003426, -0.00146797, -0.00298355, -0.00175707, -0.0310916, 0.381711, 0.222416
813.58948994900003981, -0.0014622, -0.00298266, -0.00174293, -0.0310721, 0.382973, 0.222103
813.62280624900006387, -0.0014591, -0.00297799, -0.00173399, -0.0311133, 0.383745, 0.221784
813.65612261499995839, -0.00145566, -0.00297459, -0.00172567, -0.0311357, 0.384474, 0.221512
813.68943891499998244, -0.00145343, -0.00297231, -0.00172133, -0.0310901, 0.384984, 0.221341
813.72275528199998007, -0.00144832, -0.00296807, -0.00171103, -0.031007, 0.386126, 0.220973
813.75622158700002728, -0.0014437, -0.00296145, -0.00169982, -0.0309805, 0.387242, 0.220534
813.78953788700005134, -0.00144052, -0.00295483, -0.00169343, -0.0309057, 0.38805, 0.220181
813.82285428199998023, -0.00143693, -0.00294886, -0.0016868, -0.0306794, 0.389216, 0.219803
813.85617061499999636, -0.00143444, -0.00294389, -0.00167638, -0.0306586, 0.390163, 0.219475
813.88948694900000191, -0.00143387, -0.00293482, -0.00166799, -0.0307862, 0.390641, 0.21912
813.92280328200001804, -0.00143625, -0.00292125, -0.00164755, -0.0308666, 0.392119, 0.2185
813.95611961500003417, -0.00143689, -0.00291391, -0.00163883, -0.030979, 0.392608, 0.218222
813.98943592000000535, -0.00143749, -0.00290836, -0.00163303, -0.0310967, 0.392855, 0.218033
814.02275225300002148, -0.00143831, -0.00290325, -0.00162836, -0.0311662, 0.393099, 0.217866
814.0560686149999583, -0.00143729, -0.00290697, -0.00162967, -0.0312457, 0.392805, 0.217987
814.08938506300000881, -0.00143742, -0.00290609, -0.00163205, -0.0313104, 0.392581, 0.217954
814.12285124900006394, -0.00143692, -0.00290777, -0.00162609, -0.0313883, 0.392767, 0.21805
814.15616761499995846, -0.00143608, -0.00290786, -0.00162752, -0.0314287, 0.392671, 0.218031
814.18948394899996401, -0.00143533, -0.00291232, -0.00162861, -0.031434, 0.392508, 0.218147
814.22280028199998014, -0.00143541, -0.00290793, -0.00162731, -0.0314384, 0.39268, 0.218043
814.25611661499999627, -0.00143546, -0.0029044, -0.00162743, -0.0314838, 0.392738, 0.217942
814.28943294900000183, -0.00143479, -0.00290985, -0.00162976, -0.0315581, 0.392426, 0.218046
814.32274925299998358, -0.00143553, -0.00291326, -0.00162982, -0.0315086, 0.392328, 0.218128
814.35606561500003409, -0.001434, -0.00291569, -0.00163275, -0.0314735, 0.392188, 0.218118
814.38938191500005814, -0.00143329, -0.0029204, -0.00163248, -0.0313937, 0.39212, 0.218238
814.42269827200004784, -0.00143137, -0.00293043, -0.00163568, -0.0314071, 0.391661, 0.218389
814.45616458200004217, -0.00142799, -0.0029384, -0.00164618, -0.0314624, 0.391006, 0.218269
814.48948092000000543, -0.00142335, -0.00295093, -0.00164662, -0.0313401, 0.390646, 0.218537
814.52279728200005593, -0.00142192, -0.00296432, -0.00164974, -0.0312685, 0.390076, 0.218671
814.55611361499995837, -0.00142083, -0.00296769, -0.00165199, -0.0312418, 0.389911, 0.218649
814.58942991499998243, -0.00142304, -0.00296822, -0.00164809, -0.0312236, 0.389999, 0.21878
814.62274628700004087, -0.00142631, -0.00296538, -0.00164686, -0.0312448, 0.390112, 0.218758
814.65606255800003055, -0.00142619, -0.00296945, -0.00164867, -0.0311894, 0.389947, 0.218721
814.68937891999996737, -0.00142559, -0.00297102, -0.00164904, -0.0311451, 0.389925, 0.218706
814.7226952490000258, -0.00142613, -0.00297066, -0.00164956, -0.0311443, 0.389924, 0.218669
814.756011615000034, -0.00142372, -0.00297589, -0.00164814, -0.0310487, 0.389845, 0.218754
814.78932791500005806, -0.00142131, -0.00297733, -0.00164602, -0.0309535, 0.389968, 0.218798
814.82279428200001803, -0.00142199, -0.00298087, -0.00164759, -0.0308871, 0.389846, 0.218703
814.85611061500003416, -0.00141794, -0.0029825, -0.00164338, -0.0307228, 0.390104, 0.218755
814.88942694900003971, -0.00141774, -0.00298257, -0.00164452, -0.0306454, 0.390166, 0.218619
814.92274325300002147, -0.00141856, -0.00298372, -0.00164711, -0.0305737, 0.390127, 0.218441
814.95605958199996621, -0.00141645, -0.00298535, -0.0016428, -0.0304542, 0.390315, 0.21851
814.98937592000004315, -0.00141729, -0.00298092, -0.00164354, -0.0304209, 0.39049, 0.218351
815.0226922489999879, -0.00141729, -0.00298218, -0.00164232, -0.0303613, 0.390523, 0.218351
815.05600858200000403, -0.00142277, -0.00297074, -0.00163901, -0.0301848, 0.391132, 0.217994
815.08932488699997521, -0.00142312, -0.00296907, -0.00164409, -0.0302748, 0.390994, 0.217925
815.12264125299998341, -0.0014257, -0.00296717, -0.0016455, -0.0302633, 0.391008, 0.217839
815.15610761499999626, -0.00142533, -0.00296931, -0.0016451, -0.030341, 0.390913, 0.217958
815.18942391500002032, -0.00142536, -0.00296836, -0.00165071, -0.0304598, 0.390735, 0.217913
815.22274028200001794, -0.00142933, -0.00296304, -0.00165016, -0.0304894, 0.39086, 0.217823
815.256056582000042, -0.00143446, -0.0029549, -0.00164914, -0.030608, 0.391036, 0.217723
815.28937291500005813, -0.00143314, -0.00295732, -0.00164333, -0.0306526, 0.391164, 0.217784
815.32268924900006368, -0.00143331, -0.00295768, -0.00164417, -0.0306949, 0.391124, 0.217802
815.35600558199996613, -0.00143429, -0.0029564, -0.00164331, -0.0307097, 0.391164, 0.217779
815.38932237200003783, -0.00143328, -0.00295778, -0.00164414, -0.0307256, 0.391128, 0.217808
815.42263824899998781, -0.00143683, -0.00295397, -0.00164379, -0.0307532, 0.391157, 0.217764
815.45595458200000394, -0.00144136, -0.00294944, -0.00164372, -0.0307472, 0.391168, 0.217728
815.48942092000004322, -0.00144186, -0.0029502, -0.00164245, -0.0306641, 0.391196, 0.21772
815.5227372199999536, -0.00143886, -0.00295308, -0.00164309, -0.030618, 0.391193, 0.217747
815.55605361499999617, -0.00143391, -0.00295954, -0.00164337, -0.0305453, 0.391202, 0.217796
815.58936991500002023, -0.00142612, -0.00296942, -0.00164429, -0.0303467, 0.391228, 0.217915
815.62268628200001785, -0.00142585, -0.00296862, -0.00164244, -0.0303674, 0.391275, 0.217837
815.65600261500003398, -0.00143196, -0.00296221, -0.00164191, -0.0305153, 0.391173, 0.217771
815.68931891500005804, -0.00142998, -0.00296524, -0.00164329, -0.0304525, 0.391188, 0.217863
815.72263524799996048, -0.00143621, -0.00296125, -0.0016417, -0.0306382, 0.391099, 0.217755
815.75595158700002685, -0.00144563, -0.00295048, -0.00164217, -0.0306829, 0.390797, 0.217845
815.78926792000004298, -0.00144418, -0.00294891, -0.00164385, -0.0306092, 0.390771, 0.217895
815.82258428199997979, -0.001427, -0.00295475, -0.00164842, -0.0299568, 0.39121, 0.218374
815.85605055799999263, -0.00142505, -0.00295627, -0.00164665, -0.0299678, 0.391323, 0.21825
815.8893669479999744, -0.00142814, -0.00295534, -0.00164618, -0.0300358, 0.391241, 0.218229
815.92268328199997995, -0.00143491, -0.00294984, -0.001644, -0.0301919, 0.390872, 0.218133
815.95599958700006482, -0.00143336, -0.00295408, -0.00164039, -0.0302964, 0.391068, 0.217819
815.98931594800001221, -0.00142701, -0.00295819, -0.00163768, -0.0301844, 0.39153, 0.217636
816.02263228200001777, -0.00142513, -0.00296041, -0.00163746, -0.0301426, 0.391725, 0.217598
816.05594858200004182, -0.00142221, -0.00296295, -0.00163315, -0.0301415, 0.392048, 0.217288
816.08926492000000508, -0.00141817, -0.00296695, -0.00163257, -0.0301149, 0.392354, 0.217179
816.12258128200005558, -0.00141778, -0.00296546, -0.00163179, -0.0300674, 0.392391, 0.217157
816.15589758600003734, -0.00141409, -0.00296647, -0.00162509, -0.0299475, 0.392975, 0.216775
816.18936391500005811, -0.00140546, -0.00298186, -0.00161545, -0.0300248, 0.394231, 0.215896
816.22268031999999494, -0.00140561, -0.00298446, -0.00161503, -0.0301274, 0.394205, 0.215806
816.25599661499995818, -0.00140447, -0.00298024, -0.0016129, -0.0299296, 0.394423, 0.215825
816.28931292000004305, -0.00140488, -0.00298277, -0.00160266, -0.0300379, 0.394793, 0.215161
816.32263374800004385, -0.00140513, -0.00298277, -0.00159953, -0.0300222, 0.394958, 0.215004
816.35594558200000392, -0.0014035, -0.00298315, -0.00159936, -0.0299576, 0.395145, 0.215005
816.38926194800001213, -0.00140585, -0.00299668, -0.00159538, -0.0303152, 0.39539, 0.214582
816.42257825299998331, -0.0014054, -0.00301226, -0.00160233, -0.0305464, 0.395578, 0.21474
816.45589462899999944, -0.00140445, -0.00301129, -0.00160114, -0.0305081, 0.395669, 0.214688
816.48921094800004994, -0.00140637, -0.00301028, -0.00159081, -0.0304842, 0.396125, 0.214232
816.52252723900005549, -0.00140501, -0.00301246, -0.00158919, -0.0304461, 0.396436, 0.214182
816.5559935859999996, -0.0014056, -0.00301315, -0.0015838, -0.0303869, 0.396843, 0.214023
816.5893099480000501, -0.00141052, -0.00301148, -0.00157065, -0.0304456, 0.397175, 0.213435
816.62262625300002128, -0.00141162, -0.00301199, -0.00156964, -0.0304807, 0.397173, 0.213366
816.65594258199996602, -0.00141182, -0.00302213, -0.00157289, -0.0306905, 0.397186, 0.213244
816.68925888600006147, -0.00141618, -0.00302339, -0.00156446, -0.0308663, 0.397238, 0.212709
816.72257525300005909, -0.00142447, -0.00302067, -0.00155258, -0.0311144, 0.397013, 0.211979
816.75589161499999591, -0.00142409, -0.00301521, -0.00154971, -0.0310209, 0.397049, 0.212
816.78920791500001997, -0.00142586, -0.00301226, -0.00154698, -0.0310327, 0.396974, 0.211896
816.82252425299998322, -0.00143351, -0.00301016, -0.00153718, -0.0312391, 0.396781, 0.211328
816.85584058599999935, -0.00143314, -0.00300906, -0.00153811, -0.0312658, 0.396628, 0.2113
816.8893069480000122, -0.00143132, -0.0030045, -0.00153963, -0.0311551, 0.396581, 0.211495
816.92262328200001775, -0.00143011, -0.00300009, -0.00154007, -0.0310438, 0.396594, 0.211678
816.95593958200004181, -0.00142776, -0.00300412, -0.00154403, -0.0310844, 0.396548, 0.211693
816.98925592000000506, -0.00142384, -0.00300846, -0.00154893, -0.0311531, 0.396434, 0.211658
817.02257225300002119, -0.00142318, -0.00300066, -0.00154891, -0.0310503, 0.396312, 0.211815
817.05588855300004525, -0.00142089, -0.00300013, -0.00155048, -0.0310511, 0.396244, 0.211824
817.08920492000004288, -0.00141313, -0.00301187, -0.00155932, -0.0311152, 0.396301, 0.211817
817.122521253000059, -0.00140502, -0.00303551, -0.00157111, -0.0314832, 0.396055, 0.211253
817.15583758200000375, -0.00140198, -0.00304038, -0.0015741, -0.0314622, 0.396159, 0.211317
817.18915391500001988, -0.0013895, -0.00304688, -0.00158346, -0.0312276, 0.39652, 0.211833
817.22247025299998313, -0.00138903, -0.00304769, -0.00158102, -0.0310131, 0.396974, 0.212287
817.25593658200000391, -0.00138674, -0.00304416, -0.00158111, -0.030864, 0.397148, 0.2126
817.28925294800001211, -0.00137978, -0.00304258, -0.00158397, -0.0305924, 0.397513, 0.213172
817.32256925299998329, -0.00137019, -0.00303629, -0.00158823, -0.030265, 0.397845, 0.213867
817.35588561500003379, -0.00136398, -0.00302592, -0.00159134, -0.0300562, 0.397974, 0.214319
817.38920192000000498, -0.00135557, -0.00301277, -0.00159319, -0.0294956, 0.398664, 0.215563
817.42251828200005548, -0.00135606, -0.00300586, -0.00159354, -0.0295103, 0.39859, 0.215555
817.45583455799999228, -0.00135606, -0.00300586, -0.00159354, -0.0295103, 0.39859, 0.215555
817.48915094799997405, -0.00135215, -0.00301191, -0.00159444, -0.0293726, 0.398796, 0.215818
817.52246725300005892, -0.00134977, -0.00301172, -0.00159496, -0.0293138, 0.398879, 0.215948
817.55578358200000366, -0.00133804, -0.00300906, -0.00160186, -0.0291182, 0.39912, 0.216306
817.58924994799997421, -0.00133542, -0.00300197, -0.00160431, -0.0291299, 0.399133, 0.216294
817.62256625300005908, -0.0013332, -0.00300305, -0.00160581, -0.0291767, 0.39905, 0.216154
817.65588258200000382, -0.00133741, -0.00301238, -0.00160179, -0.0293296, 0.398743, 0.215787
817.68919891500001995, -0.00133243, -0.00301461, -0.00160408, -0.0292729, 0.398796, 0.215862
817.7225152529999832, -0.00133188, -0.00301416, -0.00160433, -0.0292592, 0.398823, 0.215894
817.75583158599999933, -0.00132904, -0.00300303, -0.00160682, -0.0291613, 0.39918, 0.2162
817.78914794800004984, -0.00132182, -0.00299038, -0.00161075, -0.0288849, 0.399858, 0.216929
817.82246428099995228, -0.00131688, -0.00298963, -0.00161264, -0.0287249, 0.400107, 0.217277
817.85578061499995783, -0.0013144, -0.00298761, -0.00161436, -0.0287036, 0.400206, 0.217315
817.88909692900006121, -0.00130929, -0.00298065, -0.00161834, -0.0286847, 0.400484, 0.21737
817.92241328099999009, -0.00131537, -0.0029838, -0.0016151, -0.0288037, 0.400192, 0.217118
817.9558795809999765, -0.00131532, -0.00298616, -0.00161372, -0.0287344, 0.400174, 0.217297
817.98919591499998205, -0.00130765, -0.00297863, -0.00161961, -0.028715, 0.400568, 0.217309
818.02251224799999818, -0.00129193, -0.00296928, -0.00162839, -0.028524, 0.401303, 0.217714
818.05582858100001431, -0.00128753, -0.00297247, -0.00162812, -0.0283433, 0.40138, 0.218129
818.08914491500001986, -0.00128157, -0.00296854, -0.00163171, -0.0282965, 0.401682, 0.218214
818.12246128100002807, -0.00127294, -0.00296759, -0.00163472, -0.028134, 0.401983, 0.218566
818.15577758100005212, -0.00126298, -0.00297057, -0.00163636, -0.0278806, 0.402171, 0.219133
818.18909391500005768, -0.00125823, -0.00296875, -0.00163853, -0.0278193, 0.402398, 0.219267
818.22241028099995219, -0.00125781, -0.00296497, -0.00163949, -0.0278289, 0.402633, 0.219277
818.25572661499995775, -0.00125334, -0.00295789, -0.00164255, -0.0277846, 0.403204, 0.219426
818.28919294800004991, -0.00124379, -0.00295156, -0.00164836, -0.0277376, 0.403838, 0.21949
818.32250925300002109, -0.00124051, -0.0029509, -0.00164958, -0.0276872, 0.40398, 0.219603
818.35582561499995791, -0.00121583, -0.00294582, -0.00166674, -0.0278004, 0.404737, 0.218894
818.38914191900005335, -0.00121054, -0.00294346, -0.00166825, -0.0277142, 0.405055, 0.219127
818.42245828099999017, -0.00120663, -0.0029456, -0.00166872, -0.0276391, 0.405006, 0.219273
818.45577458100001422, -0.0011985, -0.00294454, -0.00167188, -0.0275534, 0.405308, 0.219423
818.48909094800001185, -0.00118498, -0.00294833, -0.00167562, -0.0273968, 0.405321, 0.219663
818.52240728100002798, -0.00117508, -0.00295245, -0.00167743, -0.027305, 0.405176, 0.219778
818.55572361500003353, -0.00115807, -0.002949, -0.00168191, -0.0270169, 0.405986, 0.220484
818.58903994800004966, -0.00115272, -0.00294998, -0.00168306, -0.026957, 0.406028, 0.220592
818.62250621900000169, -0.00111094, -0.00295741, -0.00169696, -0.0266101, 0.406368, 0.220916
818.6558225810000522, -0.00110552, -0.0029617, -0.00169527, -0.0264113, 0.406139, 0.221401
818.68913894800004982, -0.00112318, -0.00296244, -0.00168415, -0.0263223, 0.405674, 0.221993
818.72245522900004744, -0.00112983, -0.00296317, -0.00167668, -0.026114, 0.405474, 0.222767
818.7557744340000454, -0.00111174, -0.00296215, -0.00168507, -0.0260665, 0.406036, 0.222632
818.78908791900005326, -0.00109837, -0.00296351, -0.00169013, -0.025998, 0.406231, 0.222596
818.82240428099999008, -0.00107606, -0.00296503, -0.00169941, -0.0259416, 0.406616, 0.222397
818.85572058100001414, -0.00105644, -0.00296873, -0.00170555, -0.0258156, 0.406703, 0.222433
818.88903691899997739, -0.00104475, -0.00297128, -0.0017093, -0.0257466, 0.406715, 0.222415
818.92235328100002789, -0.00103658, -0.00297138, -0.00171209, -0.0256866, 0.406938, 0.222466
818.95566958599999907, -0.00102665, -0.00297384, -0.00171441, -0.0255946, 0.406899, 0.222563
818.98913591899997755, -0.00100636, -0.00297826, -0.00172183, -0.0255321, 0.40692, 0.222336
819.0224522529999831, -0.00099358, -0.00298131, -0.00172737, -0.025555, 0.406887, 0.221994
819.05576858599999923, -0.000989442, -0.00298459, -0.00172729, -0.0254849, 0.40655, 0.222105
819.08908491900001536, -0.000989807, -0.00298697, -0.00172104, -0.0251612, 0.406122, 0.223132
819.12240125300002092, -0.000988962, -0.0029875, -0.00172032, -0.0251047, 0.406063, 0.223294
819.15571761499995773, -0.000987412, -0.00299002, -0.00171946, -0.0250308, 0.40575, 0.223465
819.18903394799997386, -0.000979439, -0.00299053, -0.00172283, -0.0250241, 0.40594, 0.223335
819.22235028099998999, -0.000981799, -0.00298886, -0.00172168, -0.0250238, 0.406093, 0.223423
819.25566658100001405, -0.00100349, -0.00298888, -0.00171075, -0.0249464, 0.405157, 0.224147
819.28898294800001167, -0.0010073, -0.00298838, -0.00170999, -0.0249912, 0.405119, 0.224069
819.32244925300005889, -0.00101254, -0.00298631, -0.00170828, -0.0250202, 0.405282, 0.224122
819.35576558100001421, -0.00101467, -0.00299371, -0.0017019, -0.0246755, 0.403642, 0.225169
819.38908191500001976, -0.00102085, -0.00299888, -0.00169625, -0.0244705, 0.402418, 0.225874
819.42239828100002796, -0.00103928, -0.00300028, -0.00167543, -0.0234036, 0.400702, 0.22961
819.45571458599999914, -0.00103563, -0.00301048, -0.00166855, -0.0227193, 0.398462, 0.231468
819.48903091900001527, -0.00105034, -0.00301768, -0.00166022, -0.0223904, 0.396463, 0.232549
819.52234728099995209, -0.00105866, -0.00301883, -0.00165636, -0.0222993, 0.395937, 0.232973
819.55566361499995764, -0.00105535, -0.0030194, -0.00165667, -0.0222035, 0.395873, 0.233165
819.58897989100000814, -0.00107305, -0.00301678, -0.00164751, -0.0217854, 0.395987, 0.234741
819.62229625300005864, -0.00108889, -0.00301634, -0.00164022, -0.0215525, 0.395686, 0.235691
819.65561258599996108, -0.00108516, -0.00302482, -0.00164223, -0.0213871, 0.39437, 0.235774
819.68907894799997393, -0.00108955, -0.00302504, -0.00163996, -0.0212669, 0.394338, 0.236192
819.72239528099999006, -0.00109416, -0.0030271, -0.00163873, -0.0212133, 0.393972, 0.236319
819.75571161499999562, -0.00109924, -0.00303092, -0.00163775, -0.0211056, 0.393315, 0.236546
819.78902791500001968, -0.00109924, -0.00303092, -0.00163775, -0.0211056, 0.393315, 0.236546
819.82234428100002788, -0.00110158, -0.0030299, -0.0016365, -0.0210203, 0.393498, 0.236786
819.85566061500003343, -0.00110533, -0.0030289, -0.00163501, -0.0209647, 0.393645, 0.236968
819.88897691900001519, -0.00110127, -0.00302297, -0.00163298, -0.0207568, 0.394991, 0.237522
819.922293280999952, -0.00109987, -0.00302386, -0.00163206, -0.0206106, 0.394879, 0.237851
819.95560961399996813, -0.00110533, -0.00302266, -0.00162885, -0.0204918, 0.395045, 0.238335
819.988925919000053, -0.00111028, -0.00302661, -0.00162793, -0.0202418, 0.394437, 0.238881
820.02239224799996009, -0.0011181, -0.00303089, -0.00162612, -0.0201106, 0.39374, 0.239182
820.05570858099997622, -0.00112934, -0.00302749, -0.0016188, -0.0198143, 0.394228, 0.240361
820.08902491399999235, -0.0011319, -0.00302553, -0.00161542, -0.0196266, 0.394664, 0.24092
820.1223412479999979, -0.00113409, -0.00302735, -0.00161496, -0.0195761, 0.394361, 0.241011
820.15565758100001403, -0.00113405, -0.00302808, -0.00161451, -0.0194877, 0.394411, 0.241195
820.18897391400003016, -0.00113509, -0.00302929, -0.0016145, -0.019437, 0.394262, 0.241297
820.22229024800003572, -0.00113056, -0.00303026, -0.00161648, -0.0193916, 0.394263, 0.241169
820.25560661400004392, -0.0011282, -0.00303177, -0.00161738, -0.0193177, 0.394135, 0.241227
820.28892294800004947, -0.00113336, -0.00302799, -0.00161253, -0.0192012, 0.394787, 0.241768
820.32223925300002065, -0.00113472, -0.00302694, -0.00160984, -0.0190886, 0.394978, 0.242201
820.35555558600003678, -0.00113183, -0.003026, -0.00160992, -0.0190702, 0.395317, 0.242111
820.38902191399995445, -0.00112799, -0.00302724, -0.0016121, -0.0190566, 0.395294, 0.241818
820.42233828099995208, -0.00112646, -0.00302779, -0.0016124, -0.0190167, 0.395282, 0.241797
820.45565458600003694, -0.00112731, -0.00302904, -0.00161182, -0.0188944, 0.395205, 0.242045
820.48897094799997376, -0.00112743, -0.00302915, -0.00161022, -0.018702, 0.39542, 0.2424
820.52228728099998989, -0.00113194, -0.00302821, -0.00160625, -0.0184587, 0.395809, 0.242997
820.55560361400000602, -0.00112282, -0.00303024, -0.00161066, -0.0184121, 0.395601, 0.242631
820.58891989100004594, -0.0011261, -0.0030292, -0.00160634, -0.0181551, 0.395971, 0.243277
820.6222362810000277, -0.00112847, -0.00302841, -0.00160405, -0.017993, 0.396185, 0.243665
820.65555258599999888, -0.00113992, -0.00302515, -0.00159584, -0.0177285, 0.396949, 0.244597
820.68886966700006269, -0.00114791, -0.00302528, -0.00159158, -0.0176186, 0.397027, 0.245182
820.72233525199999349, -0.00116425, -0.00302439, -0.00158269, -0.0173973, 0.397344, 0.246337
820.75565165199998319, -0.00117393, -0.00302297, -0.00157689, -0.0172757, 0.397712, 0.246963
820.78896797599998081, -0.00118623, -0.00302057, -0.00156755, -0.0170352, 0.398441, 0.247837
820.82228424799995992, -0.00120624, -0.00302048, -0.00155645, -0.0167756, 0.398877, 0.249181
820.85560061399996812, -0.00125039, -0.00301653, -0.00153046, -0.0162816, 0.400475, 0.251652
820.88891691399999218, -0.00127004, -0.00301925, -0.00151886, -0.0159309, 0.400683, 0.253265
820.9222332809999898, -0.00128138, -0.00302039, -0.00151545, -0.0159861, 0.400694, 0.253646
820.95554958599996098, -0.00129653, -0.00301997, -0.00150878, -0.0160213, 0.401053, 0.254046
820.98886596199997712, -0.00130841, -0.0030225, -0.00150374, -0.015972, 0.401055, 0.254656
821.02218225199999324, -0.00131188, -0.00302389, -0.00150302, -0.0159696, 0.400965, 0.254842
821.0554985859999988, -0.00132767, -0.00302354, -0.00149447, -0.015894, 0.401483, 0.255416
821.08896494800001165, -0.00136647, -0.00302458, -0.00147308, -0.0155561, 0.402699, 0.257082
821.12228128100002778, -0.00139189, -0.00302449, -0.00145821, -0.0151445, 0.403665, 0.25829
821.15559758599999896, -0.00140266, -0.00302336, -0.00145085, -0.0149841, 0.404211, 0.258687
821.18891391900001508, -0.00140713, -0.00302312, -0.00144657, -0.0148794, 0.404509, 0.258937
821.22223027100005766, -0.00141409, -0.00302521, -0.00144284, -0.0147449, 0.404643, 0.259389
821.25554661399996803, -0.00142106, -0.00302508, -0.00143744, -0.0145608, 0.405008, 0.259745
821.28886294799997358, -0.00143305, -0.00302554, -0.00142907, -0.0143255, 0.405513, 0.260254
821.32217928099998971, -0.00145067, -0.00303161, -0.00141886, -0.0140485, 0.405938, 0.261218
821.35549558599996089, -0.00147029, -0.00303155, -0.00140622, -0.0138908, 0.406777, 0.261622
821.38881191899997702, -0.00148162, -0.0030327, -0.0013995, -0.0137989, 0.407188, 0.261901
821.4222782519999555, -0.00149549, -0.00303331, -0.00139221, -0.0138605, 0.407635, 0.261952
821.45559455700004037, -0.00151659, -0.00303698, -0.00138029, -0.0135083, 0.408264, 0.26274
821.48891088599998511, -0.00152002, -0.00303857, -0.00137712, -0.013266, 0.40842, 0.263138
821.52222728100002769, -0.00153299, -0.00303713, -0.00136927, -0.0132624, 0.409, 0.263117
821.55554361400004382, -0.00155674, -0.00303838, -0.00135646, -0.0132921, 0.409796, 0.263209
821.588859919000015, -0.00157512, -0.0030353, -0.00134584, -0.013152, 0.410577, 0.263255
821.62217624799995974, -0.00160041, -0.00302888, -0.00132961, -0.0128383, 0.411789, 0.263358
821.65549258099997587, -0.00161599, -0.00302945, -0.00132045, -0.0126631, 0.41233, 0.2636
821.68880891900005281, -0.00163352, -0.00302949, -0.00130979, -0.0125646, 0.412981, 0.263709
821.72212528099998963, -0.00164844, -0.00302901, -0.0013008, -0.0125947, 0.413557, 0.26363
821.7555916139999681, -0.00166836, -0.00302494, -0.00128758, -0.0125356, 0.414441, 0.263471
821.78890794799997366, -0.00167597, -0.00302409, -0.0012824, -0.012457, 0.414752, 0.263509
821.8222242860000506, -0.00169847, -0.00302523, -0.00126899, -0.0125262, 0.415523, 0.263416
821.85554061400000592, -0.00172274, -0.00302318, -0.00125358, -0.0127963, 0.416559, 0.262935
821.88885694800001147, -0.00173937, -0.00301776, -0.00124375, -0.0129535, 0.4173, 0.262462
821.92217321900000115, -0.00173375, -0.00302135, -0.00124793, -0.012782, 0.416883, 0.262853
821.95548961400004373, -0.00175396, -0.00301711, -0.00123427, -0.0126223, 0.417663, 0.262796
821.9888059139999541, -0.0017797, -0.00300845, -0.0012142, -0.0124565, 0.418877, 0.262515
822.02212140799997542, -0.00179213, -0.00300521, -0.00120571, -0.0124392, 0.419397, 0.262359
822.05543580400001247, -0.00180969, -0.003, -0.00119361, -0.0125703, 0.420178, 0.261942
822.08875023799998871, -0.0017986, -0.00300476, -0.0012027, -0.0126499, 0.419655, 0.262103
822.12221466899995903, -0.00179828, -0.00300504, -0.00120299, -0.0126481, 0.419633, 0.262117
822.15552913199996965, -0.00179346, -0.00300924, -0.00120657, -0.0125537, 0.419333, 0.262407
822.18884350400003314, -0.00178499, -0.00301502, -0.00121143, -0.0124193, 0.418917, 0.262806
822.22215797199999088, -0.0017719, -0.00302238, -0.00121891, -0.0122702, 0.418364, 0.263285
822.25547240599996712, -0.00176929, -0.00302687, -0.00122069, -0.0121429, 0.418156, 0.263581
822.28878686899997774, -0.00176444, -0.00302789, -0.00122594, -0.0122505, 0.417921, 0.263527
822.32210126999996191, -0.00174514, -0.00303435, -0.00124171, -0.0122754, 0.417091, 0.263778
822.35541570400005185, -0.00173216, -0.00303558, -0.00125012, -0.0122645, 0.416755, 0.263848
822.38873014299997521, -0.00172428, -0.0030398, -0.00125631, -0.0121785, 0.4164, 0.264081
822.42204457299999376, -0.00171238, -0.00304846, -0.00126458, -0.0119525, 0.415805, 0.264598
822.45550900299997465, -0.0017086, -0.00305466, -0.00126577, -0.0117736, 0.415607, 0.264985
822.48882346599998527, -0.00169498, -0.00305803, -0.00127669, -0.011609, 0.415118, 0.265251
822.52213786699996945, -0.00167774, -0.00306698, -0.00129014, -0.0114388, 0.41441, 0.265696
822.55545230100005938, -0.00167347, -0.00307055, -0.00129333, -0.0113682, 0.414199, 0.265877
822.58876676900001712, -0.0016624, -0.00306954, -0.0013031, -0.011312, 0.41386, 0.265877
822.6220811750000621, -0.00165506, -0.00307428, -0.00130869, -0.0111382, 0.413545, 0.266169
822.65539592300001459, -0.00165132, -0.00307758, -0.00131164, -0.0110454, 0.413356, 0.266345
822.68871007200004897, -0.00164787, -0.00307755, -0.00131378, -0.0109768, 0.413279, 0.266388
822.72202447300003314, -0.00163983, -0.00308561, -0.00131815, -0.0107886, 0.41298, 0.266798
822.75533894000000146, -0.00163085, -0.00309636, -0.00132424, -0.0106478, 0.412572, 0.267246
822.78865334099998563, -0.00160935, -0.00311507, -0.00133669, -0.0102328, 0.411835, 0.268105
822.82211775300004319, -0.00159508, -0.0031278, -0.00134748, -0.00998274, 0.411228, 0.268632
822.85543220600004588, -0.00159584, -0.0031294, -0.00134628, -0.00996416, 0.411245, 0.268688
822.8887466690000565, -0.00159065, -0.00312872, -0.00135086, -0.00990424, 0.41112, 0.268699
822.92206109400001424, -0.00158993, -0.00312937, -0.00135127, -0.00988081, 0.411102, 0.268727
822.95537550899996404, -0.0015903, -0.00312947, -0.00135072, -0.00984439, 0.411119, 0.26874
822.98868997199997466, -0.0015903, -0.00312947, -0.00135072, -0.00984439, 0.411119, 0.26874
823.02200525399996422, -0.00158901, -0.00313486, -0.00134985, -0.00964845, 0.411123, 0.268943
823.05532152399996448, -0.0015791, -0.00313364, -0.00135842, -0.00941284, 0.410889, 0.26902
823.08863788999997269, -0.00157905, -0.00313302, -0.00135831, -0.0092682, 0.410909, 0.269038
823.12195419500005755, -0.00157912, -0.00313943, -0.00135603, -0.00907674, 0.410953, 0.269233
823.15542049999999108, -0.00157846, -0.00314407, -0.00135501, -0.00896273, 0.41098, 0.269368
823.18873688999997285, -0.00157892, -0.00314663, -0.00135334, -0.00883772, 0.411028, 0.269443
823.22205319500005771, -0.00157721, -0.00315216, -0.00135262, -0.00869977, 0.411061, 0.269594
823.25536949499996808, -0.00158011, -0.00315161, -0.00135007, -0.00858026, 0.411133, 0.269574
823.28868585700001859, -0.00157949, -0.00315665, -0.00134856, -0.00845379, 0.411197, 0.269694
823.32200222400001621, -0.00159177, -0.00317327, -0.00133589, -0.00848573, 0.411539, 0.269877
823.35531852799999797, -0.0015891, -0.00318322, -0.00133571, -0.00838375, 0.411615, 0.270093
823.3886348570000564, -0.00159679, -0.00319708, -0.00132591, -0.00826663, 0.411934, 0.270237
823.42195122400005403, -0.00160516, -0.00320452, -0.00131972, -0.00834788, 0.412123, 0.27023
823.45526749999999083, -0.00159919, -0.00321296, -0.00132277, -0.00833763, 0.412181, 0.2704
