time, bias_gyr_x, bias_gyr_y, bias_gyr_z, bias_acc_x, bias_acc_y, bias_acc_z
-1, 0, 0, 0, 0, 0, 0
780.75935576500000934, 0, 0, 0, 0, 0, 0
780.79267210299997259, -0.0131063, -0.0100259, 0.00103568, -0.000123073, 5.39896e-05, -3.99223e-05
780.8259884650000231, -0.00752135, -0.00497413, -0.000487374, -0.00262944, 0.000756417, 0.000366671
780.85930478900002072, -0.00530997, -0.00509583, -0.000378892, -0.0017239, 0.00019385, 0.000571451
780.89262113200004478, -0.00361064, -0.00456037, -0.00094226, -0.00428036, 5.38474e-05, 0.000797903
780.92593743600002654, -0.00334155, -0.00310938, -0.0012968, -0.00581875, -0.000125369, 0.00119841
780.95925376499997128, -0.00271151, -0.00387693, -0.00133036, -0.00159736, -3.55012e-05, 0.000485859
780.99257007400001385, -0.00252051, -0.00376347, -0.00125853, -0.00596563, -0.000164241, 0.00143715
781.02603643199995531, -0.00254288, -0.0033826, -0.00120496, -0.00730124, -0.0001882, 0.00167012
781.05935279799996351, -0.00249431, -0.00345554, -0.00114604, -0.00484388, -0.00014864, 0.00116212
781.09266913199996907, -0.002536, -0.0031979, -0.00114099, -0.00803572, -0.000201561, 0.00185256
781.12598540800001956, -0.00262812, -0.00310511, -0.00116056, -0.0075708, -0.00020051, 0.00175278
781.15930179800000133, -0.00263867, -0.00309885, -0.0011521, -0.00788362, -0.0002128, 0.00184428
781.19261813200000688, -0.00262418, -0.00293013, -0.00116034, -0.010044, -0.00024083, 0.00231195
781.22593443200003094, -0.00252283, -0.00285402, -0.00117225, -0.00961099, -0.000204311, 0.00219785
781.25925076999999419, -0.0023004, -0.00277355, -0.00123671, -0.0104212, -0.000223152, 0.00238163
781.29256713200004469, -0.00208591, -0.00256767, -0.00129578, -0.0128536, -0.000268121, 0.00293957
781.32588343199995506, -0.00192397, -0.00252938, -0.00129365, -0.0104799, -0.000246859, 0.00242444
781.35919976499997119, -0.00182239, -0.00261213, -0.00128962, -0.0100272, -0.000251712, 0.00229798
781.39266610300001048, -0.00175003, -0.00255334, -0.00129731, -0.0140266, -0.000290685, 0.0031791
781.42598243199995522, -0.00171949, -0.00238275, -0.00127183, -0.0158608, -0.000303149, 0.00359263
781.45929876499997135, -0.00173697, -0.00220254, -0.00126201, -0.0146139, -0.00029327, 0.00332512
781.49261513199996898, -0.00173534, -0.00201303, -0.00124041, -0.0146235, -0.000286207, 0.00332592
781.52593143599995074, -0.00166506, -0.00188803, -0.00124125, -0.0146888, -0.000279669, 0.00335041
781.55924776500000917, -0.00163251, -0.00173432, -0.00124525, -0.0164022, -0.000302481, 0.00374339
781.59256413200000679, -0.00162308, -0.00166429, -0.00123977, -0.0150846, -0.000311842, 0.00345168
781.62588043599998855, -0.00153575, -0.00156026, -0.00125454, -0.0178504, -0.000311507, 0.00410514
781.65919679800003905, -0.0015584, -0.00152689, -0.00121262, -0.0156011, -0.000341099, 0.00360191
781.69251310300001023, -0.00150942, -0.00158736, -0.00119531, -0.0144872, -0.000306683, 0.00329966
781.72597943599998871, -0.00143049, -0.00160063, -0.00119995, -0.0181547, -0.000333373, 0.00412591
781.75929576500004714, -0.00142459, -0.00157053, -0.00123517, -0.0210721, -0.000335213, 0.00478701
781.79261207000001832, -0.00140008, -0.00158701, -0.00123429, -0.0176472, -0.000312966, 0.00401195
781.82592908900005568, -0.0013845, -0.00157764, -0.0012463, -0.0197099, -0.000345114, 0.00449756
781.85925069799998255, -0.00134938, -0.00158796, -0.00123989, -0.0188991, -0.000329883, 0.0043217
781.89256110300004821, -0.0013009, -0.00162767, -0.0012262, -0.0188927, -0.000329918, 0.00431439
781.92587776000004851, -0.0012675, -0.00165205, -0.00120157, -0.0214483, -0.000384556, 0.00491437
781.95919377400002759, -0.00126555, -0.00167669, -0.00117391, -0.0211534, -0.000374664, 0.00482977
781.99251013100001728, -0.00126126, -0.00172095, -0.00114249, -0.0200418, -0.000357295, 0.00456712
782.02582643100004134, -0.0012625, -0.00175652, -0.00111256, -0.0215959, -0.000373275, 0.00492387
782.05914276500004689, -0.00126181, -0.00181556, -0.00107982, -0.0205949, -0.0003505, 0.00469493
782.09260913100001744, -0.00126319, -0.00183585, -0.00108238, -0.0240328, -0.000379544, 0.00549922
782.125925465000023, -0.00122888, -0.00186875, -0.00107661, -0.022428, -0.000348729, 0.00513949
782.15924180299998625, -0.00117603, -0.00188133, -0.00106574, -0.0246384, -0.000378488, 0.0056736
782.1925580979999495, -0.00117162, -0.00188886, -0.00103604, -0.0237319, -0.000397858, 0.00545683
782.22587443600002644, -0.00114815, -0.00191738, -0.000990689, -0.0238196, -0.000371071, 0.00544867
782.25919079799996325, -0.00112759, -0.00194147, -0.000940245, -0.0247719, -0.000422552, 0.00569185
782.29250710300004812, -0.00110376, -0.00198501, -0.000889963, -0.0236085, -0.000408365, 0.00541725
782.32582343599995056, -0.00109102, -0.00201121, -0.000847235, -0.0265738, -0.000408577, 0.00608196
782.35913979800000106, -0.00108109, -0.00203407, -0.000808853, -0.0262797, -0.000417627, 0.00600526
782.39245609800002512, -0.00107565, -0.00207423, -0.000779623, -0.023767, -0.000375397, 0.00541915
782.42592243599995072, -0.00105044, -0.00211344, -0.00075846, -0.0247032, -0.000359967, 0.00566495
782.45923879800000122, -0.0010221, -0.00216369, -0.000736469, -0.0241634, -0.000359996, 0.00554526
782.49255513100001735, -0.000998279, -0.00220273, -0.00071243, -0.0248857, -0.000378228, 0.0057053
782.52587146500002291, -0.000966932, -0.00221458, -0.000684679, -0.0286931, -0.000423652, 0.00659646
782.55918779800003904, -0.000944706, -0.00223431, -0.000653373, -0.0270538, -0.00040645, 0.00619649
782.59250413600000229, -0.00092665, -0.00223863, -0.000618967, -0.0287746, -0.000420282, 0.00659065
782.62582040300003428, -0.000909413, -0.00223632, -0.000589815, -0.0292302, -0.000449198, 0.00669795
782.65913679799996316, -0.000907788, -0.00225892, -0.000580418, -0.0255873, -0.000425771, 0.00586797
782.69245309799998722, -0.000901246, -0.00229057, -0.000565504, -0.0265148, -0.000415726, 0.00609885
782.72576943599995047, -0.000892801, -0.00230491, -0.000550657, -0.0285344, -0.000439527, 0.0065511
782.75908579800000098, -0.000880565, -0.0023095, -0.000526987, -0.028349, -0.000440504, 0.00654304
782.79255210300004819, -0.00086646, -0.0023326, -0.000511203, -0.0255062, -0.000434072, 0.00590471
782.82586846499998501, -0.000820649, -0.00240828, -0.00042617, -0.0192716, -0.000333972, 0.00457727
782.85918479800000114, -0.000803847, -0.00241978, -0.000371485, -0.0211758, -0.000347949, 0.00491457
782.89250113100001727, -0.000797211, -0.00243176, -0.000331115, -0.0339577, -0.000480061, 0.0074806
782.92581742200002282, -0.000808097, -0.00240768, -0.000288191, -0.0393909, -0.000608971, 0.00856258
782.95913376900000458, -0.000794583, -0.00238358, -0.00028833, -0.0392981, -0.000709163, 0.00862017
782.99245013100005508, -0.000808091, -0.00235591, -0.000357116, -0.0321592, -0.000741528, 0.00744534
783.02576642200006063, -0.000820324, -0.00231626, -0.000456721, -0.0278102, -0.00062157, 0.00673751
783.059082764999971, -0.000819108, -0.00229327, -0.00050465, -0.0340195, -0.000777027, 0.0078317
783.09239913099997921, -0.00080798, -0.00229819, -0.000475238, -0.0340459, -0.000821657, 0.00788553
783.12586554599999999, -0.000791748, -0.00228465, -0.000460178, -0.0380214, -0.00111423, 0.00841121
783.15918176499997116, -0.000775327, -0.00227607, -0.000470758, -0.0396889, -0.00117505, 0.00867848
783.19249809799998729, -0.000765847, -0.00226589, -0.000487045, -0.0431023, -0.000997472, 0.00940722
783.22581443100000342, -0.000760495, -0.00226024, -0.000497174, -0.0411411, -0.0004338, 0.00898542
783.25913076500000898, -0.000751867, -0.00225745, -0.000504565, -0.0361676, 0.000215978, 0.00782286
783.29244707899999867, -0.000750826, -0.00225539, -0.000510148, -0.0336424, 0.000496567, 0.00732499
783.32576343599998836, -0.000749318, -0.00225122, -0.000514911, -0.0327841, 0.00030296, 0.00722838
783.35907979800003886, -0.000750743, -0.00225986, -0.000529335, -0.0262349, 0.00075176, 0.00586456
783.39239613100005499, -0.000749086, -0.00226296, -0.000534384, -0.0312761, 0.000401479, 0.00724604
783.4257124030000341, -0.000749291, -0.00226188, -0.000536706, -0.0364035, -3.48755e-05, 0.00842927
783.45917876900000465, -0.00075108, -0.00226755, -0.000538326, -0.0318891, -0.000134511, 0.00733909
783.4924951030000102, -0.000747555, -0.00227374, -0.000540706, -0.033623, 0.000426108, 0.00730739
783.52581143099996552, -0.000743202, -0.00228255, -0.00054294, -0.034407, 0.000460768, 0.00761248
783.55912779799996315, -0.000787265, -0.00239185, -0.00061549, -0.0308836, 0.000770025, 0.00661214
783.59244410300004802, -0.000784422, -0.00240225, -0.000617679, -0.0294832, 0.000248669, 0.00560304
783.62576043100000334, -0.000780672, -0.002411, -0.000616045, -0.0316202, 0.000292162, 0.00623343
783.65907676000006177, -0.000777647, -0.00241989, -0.000613186, -0.0291337, 7.95074e-05, 0.00508902
783.69239309800002502, -0.000782786, -0.00244377, -0.000625499, -0.029185, 0.000836673, 0.00463607
783.72570943599998827, -0.000782345, -0.00244482, -0.000620651, -0.0301711, 0.00163889, 0.00561595
783.7590257690000044, -0.000781374, -0.00244428, -0.00061515, -0.0319938, 0.00287148, 0.00628779
783.79234213100005491, -0.000779541, -0.00244268, -0.000603925, -0.0315267, 0.00377887, 0.00634014
783.82580846500002281, -0.000781589, -0.00244431, -0.000594152, -0.0365099, 0.00416492, 0.00701235
783.85912476900000456, -0.000788266, -0.00244814, -0.000586802, -0.0406491, 0.00464355, 0.00718475
783.89244110300001012, -0.000793667, -0.00243534, -0.000544927, -0.035535, 0.00432298, 0.00559822
783.92575746500006062, -0.000798337, -0.002439, -0.000544211, -0.0344706, 0.00461808, 0.00504605
783.9590737360000503, -0.000801564, -0.00244376, -0.00054145, -0.031657, 0.00384506, 0.00489513
783.99239013099997919, -0.000795331, -0.00241789, -0.000540671, -0.0322377, 0.0053424, 0.00460697
784.02570646499998475, -0.000793723, -0.00241083, -0.000549226, -0.0398673, 0.00723291, 0.00568858
784.05902279800000088, -0.000794046, -0.00240936, -0.000547558, -0.0399266, 0.00695345, 0.00600288
784.09233913100001701, -0.000794504, -0.00240713, -0.000546623, -0.0444089, 0.00780536, 0.00670873
784.12565546500002256, -0.00079398, -0.00240251, -0.000543148, -0.0478307, 0.00839518, 0.00720774
784.15912179800000104, -0.000791632, -0.00239641, -0.000538039, -0.0469708, 0.00816701, 0.00716223
784.19243813100001717, -0.000791477, -0.00238736, -0.000532026, -0.0464184, 0.00814798, 0.00708002
784.22575446400003329, -0.000789483, -0.00237672, -0.000526695, -0.0476491, 0.00828965, 0.00737366
784.25907076900000447, -0.00078947, -0.00236717, -0.000528712, -0.0483008, 0.0083053, 0.00760999
784.29238713100005498, -0.000791638, -0.00235785, -0.000531037, -0.048511, 0.00828884, 0.00774175
784.32570346399995742, -0.000789073, -0.00235632, -0.000532835, -0.046653, 0.00805349, 0.00751657
784.35901979799996298, -0.000792772, -0.00236591, -0.000551725, -0.0465635, 0.00798677, 0.00737064
784.3923361309999791, -0.000794403, -0.00236757, -0.000560865, -0.0481512, 0.00815078, 0.00753993
784.42565246399999523, -0.000793851, -0.00236877, -0.000562941, -0.0506663, 0.00824941, 0.00759052
784.45896879800000079, -0.00079159, -0.00236396, -0.000560822, -0.0519568, 0.00869972, 0.00749272
784.49228513100001692, -0.000787128, -0.00235777, -0.000557765, -0.0513179, 0.00903896, 0.00741996
784.52575140299995837, -0.00077871, -0.00236197, -0.000559969, -0.0481915, 0.00913487, 0.00689263
784.55906779800000095, -0.000778662, -0.0023608, -0.000565036, -0.0469203, 0.00891414, 0.00658407
784.59238409800002501, -0.000773544, -0.00235907, -0.000581781, -0.0490244, 0.00858079, 0.00708846
784.62570047400004114, -0.000776352, -0.00236323, -0.0005918, -0.0465892, 0.00890655, 0.00680364
784.65901676900000439, -0.000780064, -0.00236907, -0.000601243, -0.0441321, 0.00899134, 0.0063007
784.69233310300000994, -0.000783856, -0.00237377, -0.000612035, -0.0465527, 0.00854032, 0.00687543
784.72564946399995733, -0.000785287, -0.00238632, -0.000631449, -0.0504333, 0.00813175, 0.00752423
784.75896576399998139, -0.00078224, -0.00238883, -0.000643176, -0.0493832, 0.00856736, 0.00724235
784.79228210200005833, -0.000777688, -0.00239292, -0.000656002, -0.0465583, 0.00897108, 0.00666462
784.82559846399999515, -0.000773029, -0.00239993, -0.00067516, -0.0456948, 0.00901711, 0.00639306
784.85906479799996305, -0.000767136, -0.0024062, -0.000688047, -0.0450888, 0.00922017, 0.00624688
784.89238166400002683, -0.000758215, -0.00241062, -0.000699748, -0.0471388, 0.00888604, 0.00680803
784.92569743599995036, -0.000748208, -0.00241322, -0.000710459, -0.0437422, 0.00933496, 0.00598821
784.95901379800000086, -0.000738034, -0.00241408, -0.000708085, -0.0422336, 0.00954942, 0.00556658
784.99233007400005135, -0.000805431, -0.00263423, -0.000812773, -0.047712, 0.00909036, 0.00680844
785.02564646400003312, -0.000800891, -0.00263341, -0.000812544, -0.0468004, 0.00907461, 0.00652511
785.05896279800003867, -0.000800473, -0.00263682, -0.000821451, -0.0431965, 0.00932263, 0.00554957
785.0922791310000548, -0.00079937, -0.00264, -0.000826989, -0.0417257, 0.00970446, 0.00518128
785.12559543600002598, -0.000800379, -0.00264295, -0.000833246, -0.045326, 0.0095751, 0.006084
785.15891178300000774, -0.000800407, -0.00264579, -0.000834436, -0.0448507, 0.00947914, 0.00615434
785.19222813099997893, -0.000797791, -0.00264749, -0.000825296, -0.044053, 0.00952624, 0.00602598
785.22569443099996533, -0.000792017, -0.00264404, -0.000810839, -0.0446762, 0.00942987, 0.00618439
785.25901078799995503, -0.000785074, -0.00264823, -0.000800561, -0.044798, 0.00960365, 0.00612976
785.2923271020000584, -0.000781795, -0.00264677, -0.000792294, -0.048884, 0.00979054, 0.00700415
785.32564343599995027, -0.000776291, -0.00264481, -0.000775366, -0.0454266, 0.0095033, 0.00613701
785.35896041700004844, -0.000770167, -0.00264572, -0.000757986, -0.0418306, 0.00923367, 0.00527368
785.3922761310000169, -0.000771632, -0.00264692, -0.000746169, -0.0394764, 0.00899734, 0.00462532
785.42559246400003303, -0.000778469, -0.00265623, -0.000741514, -0.0390829, 0.00901093, 0.00459105
785.45890995499996734, -0.000781847, -0.00265272, -0.000735472, -0.0405603, 0.00925669, 0.0047586
785.49222513100005472, -0.000785616, -0.00265168, -0.000729286, -0.0476146, 0.0102392, 0.00613558
785.52554143099996509, -0.000787412, -0.00265204, -0.000730537, -0.0470808, 0.0102144, 0.00604516
785.55900776900000437, -0.000790195, -0.00265294, -0.000731214, -0.0472687, 0.0103048, 0.00606861
785.5923241020000205, -0.000792783, -0.00265402, -0.000730829, -0.0492824, 0.010704, 0.00640398
785.62564046399995732, -0.000794991, -0.00265522, -0.000731064, -0.0483106, 0.0106749, 0.00620321
785.65895676900004219, -0.000796861, -0.00265417, -0.000730746, -0.0523322, 0.0114358, 0.00678573
785.692273130999979, -0.000800698, -0.00265017, -0.000727025, -0.0535799, 0.0117086, 0.00714529
785.72558940199996869, -0.000804849, -0.00264294, -0.000719334, -0.0545393, 0.0119037, 0.00700398
785.75890579800000069, -0.000807888, -0.00263526, -0.000713026, -0.0542448, 0.0119344, 0.00698198
785.79222213100001682, -0.000805689, -0.0026273, -0.000701047, -0.0526242, 0.0118053, 0.00678958
785.82553846400003295, -0.000809915, -0.00261895, -0.000699906, -0.0524939, 0.0115917, 0.00676574
785.858854764000057, -0.000808921, -0.00261044, -0.000697381, -0.0534482, 0.0114016, 0.00664412
785.89217109800006256, -0.0008065, -0.00259448, -0.000687956, -0.0556531, 0.0115688, 0.00669484
785.92563746400003311, -0.000806135, -0.00257461, -0.000689535, -0.0551053, 0.0119233, 0.00656288
785.95895479299997533, -0.000799626, -0.00255317, -0.000683, -0.0574608, 0.0117857, 0.00699412
785.99227013100005479, -0.000798196, -0.00253977, -0.000688241, -0.0574433, 0.0120153, 0.00727184
786.02558646399995723, -0.000799365, -0.00253588, -0.000703829, -0.0517572, 0.0120146, 0.0066725
786.0589027690000421, -0.000804354, -0.00253442, -0.00071462, -0.0491222, 0.0121114, 0.00654369
786.09221909799998684, -0.000808034, -0.00253586, -0.000723404, -0.0448315, 0.012225, 0.00591359
786.1255354359999501, -0.000806396, -0.00253158, -0.000722603, -0.0476436, 0.0121421, 0.00600245
786.1588517640000191, -0.000800646, -0.00252625, -0.000719075, -0.0481571, 0.012377, 0.00576098
786.19216813100001673, -0.000790622, -0.00252056, -0.000715037, -0.0549343, 0.0121612, 0.00666475
786.22548446899997998, -0.000786713, -0.00251988, -0.000712018, -0.0534583, 0.012323, 0.00642289
786.25895076899996639, -0.000787317, -0.00252285, -0.000712459, -0.0487083, 0.0125897, 0.00584736
786.29226710199998251, -0.000787167, -0.00252543, -0.00071332, -0.0537708, 0.0124177, 0.00644811
786.32558365900001718, -0.000787265, -0.00252675, -0.000714365, -0.0467235, 0.0129994, 0.00580383
786.3588997690000042, -0.000785721, -0.00252731, -0.000715847, -0.052014, 0.0124152, 0.00570197
786.39221610200002033, -0.000782735, -0.00252835, -0.000715615, -0.0488605, 0.0128047, 0.00604105
786.42553246900001795, -0.000782142, -0.00252989, -0.000713896, -0.0481722, 0.0125434, 0.00667751
786.45884879699997327, -0.000784531, -0.00252908, -0.00071135, -0.0572792, 0.0106852, 0.0070309
786.49216509699999733, -0.00078373, -0.00252775, -0.000711084, -0.0542701, 0.010368, 0.00677781
786.52548143100000289, -0.00078047, -0.00252472, -0.000706847, -0.0590336, 0.0108386, 0.00528336
786.55879776899996614, -0.000779606, -0.00252518, -0.000702644, -0.0579612, 0.0124972, 0.00426539
786.59226413099997899, -0.000779045, -0.00252633, -0.000701829, -0.051971, 0.011494, 0.00454601
786.62558043599995017, -0.000776532, -0.00252837, -0.000702234, -0.0443647, 0.0124527, 0.00552873
786.65889676400001918, -0.00077273, -0.00252929, -0.000707042, -0.0446244, 0.0159925, 0.00508983
786.6922131310000168, -0.000769072, -0.00252986, -0.000708321, -0.047762, 0.0190076, 0.00526447
786.72552946400003293, -0.000763711, -0.00253181, -0.000706251, -0.0485246, 0.0204614, 0.006181
786.75884579700004906, -0.000756849, -0.00253533, -0.00070022, -0.049822, 0.0209298, 0.0065402
786.79216213100005461, -0.000748955, -0.00254281, -0.000695888, -0.0480485, 0.020856, 0.00624493
786.82547846399995706, -0.000748115, -0.0025464, -0.000692929, -0.0480142, 0.0218441, 0.00433401
786.85879479699997319, -0.000786034, -0.00253522, -0.000683364, -0.0485524, 0.0247634, 0.00171472
786.89211109699999724, -0.000787818, -0.00253502, -0.000679809, -0.05326, 0.0273036, 0.00105522
786.9254274310000028, -0.000789513, -0.00253645, -0.000676004, -0.0490192, 0.0266541, 0.00452459
786.95889379699997335, -0.000793999, -0.0025345, -0.000672513, -0.0573512, 0.0292519, 0.00127291
786.9922101309999789, -0.000797561, -0.00253656, -0.000671329, -0.0484621, 0.0268979, 0.00231371
787.02552646399999503, -0.00080275, -0.00253957, -0.000673183, -0.0501389, 0.0274221, 0.00290957
787.05884276400001909, -0.000810468, -0.00254678, -0.000667374, -0.0469606, 0.0267574, 0.00269831
787.09215910199998234, -0.000810516, -0.00254724, -0.000666195, -0.043425, 0.0267038, 0.00424393
787.12547543499999847, -0.00080841, -0.00254505, -0.000662499, -0.0488608, 0.028147, 0.0027426
787.15879179700004897, -0.000811987, -0.00254479, -0.000662913, -0.0592434, 0.0307877, 0.000430488
787.19210813100005453, -0.000817126, -0.00254483, -0.000667229, -0.0523167, 0.027926, 0.00209902
787.22542443500003628, -0.000821883, -0.0025485, -0.000666342, -0.0503555, 0.0258819, 0.0030536
787.2587407969999731, -0.000823755, -0.00254585, -0.000662858, -0.0561228, 0.0285865, 0.00205398
787.29220987799999421, -0.000827115, -0.00254443, -0.000659444, -0.0550191, 0.0281409, 0.00260658
787.32552346399995713, -0.000828398, -0.00254199, -0.000657205, -0.0543948, 0.0282559, 0.00235651
787.35883979699997326, -0.000831183, -0.00253933, -0.000653749, -0.053757, 0.0281398, 0.00272262
787.39215613099997881, -0.000828738, -0.00253935, -0.000651461, -0.0514826, 0.0277309, 0.00319971
787.42547243100000287, -0.000827525, -0.00254414, -0.000652409, -0.0492486, 0.0270359, 0.0035001
787.458788764000019, -0.000829755, -0.00255142, -0.000652754, -0.0489219, 0.0267408, 0.0036651
787.49210506899999018, -0.000831052, -0.00254915, -0.00065473, -0.057457, 0.0279794, 0.00265143
787.52542143499999838, -0.000836855, -0.0025509, -0.000658545, -0.0542059, 0.0274937, 0.00305225
787.55873779700004889, -0.000842373, -0.0025569, -0.000658858, -0.0494306, 0.0268814, 0.00378277
787.59205530200006251, -0.000843442, -0.00256088, -0.000660458, -0.0496274, 0.0268206, 0.00371237
787.62537046399995688, -0.000842893, -0.00256039, -0.000660175, -0.0556753, 0.027673, 0.00261456
787.65883680700005698, -0.000840514, -0.00255222, -0.000656735, -0.0588473, 0.0280064, 0.00202149
787.69215349700004936, -0.00083941, -0.00254296, -0.000648513, -0.0628795, 0.0288505, 0.00171862
787.72546943500003636, -0.00083006, -0.00253646, -0.000645886, -0.065225, 0.0294086, 0.00142491
787.75878579699997317, -0.000829426, -0.00253853, -0.000649897, -0.0595642, 0.0293859, 0.00195813
787.79210206899995228, -0.000828826, -0.00254161, -0.000655033, -0.0610644, 0.0292527, 0.00158772
787.82541843100000278, -0.000828415, -0.00254447, -0.000661376, -0.0580753, 0.0292686, 0.00129911
787.85873479700001099, -0.00082945, -0.0025451, -0.000665173, -0.0550048, 0.0291615, 0.00137472
787.89205113100001654, -0.000831682, -0.00254586, -0.000669622, -0.0544626, 0.0293053, 0.00198677
787.9253674310000406, -0.000834545, -0.00254455, -0.000669577, -0.052741, 0.0290605, 0.00179374
787.9586837970000488, -0.000834325, -0.00254598, -0.000668437, -0.0413058, 0.0306151, -0.000595752
787.99215010199998233, -0.000828374, -0.00254848, -0.00066528, -0.0382816, 0.0295146, -0.00267654
788.02546643499999846, -0.000827231, -0.00254782, -0.00066708, -0.0569879, 0.0280776, 0.00215203
788.05878276400005689, -0.000826173, -0.00254554, -0.00066705, -0.0580406, 0.0279071, 0.00244713
788.09209909699995933, -0.000824561, -0.00254391, -0.000668525, -0.0516619, 0.0284274, 0.00193119
788.12541543500003627, -0.000821167, -0.00254406, -0.000668511, -0.045478, 0.0288322, 0.000903985
788.15873176399998101, -0.000813403, -0.00254372, -0.000664395, -0.0466662, 0.0286527, 0.000952532
788.19204813099997864, -0.000807649, -0.00253791, -0.000661471, -0.0571187, 0.0282905, 0.0024096
788.22536446399999477, -0.000803452, -0.00253317, -0.000659215, -0.0567549, 0.0282207, 0.00247966
788.2586807970000109, -0.000798596, -0.00253607, -0.000657115, -0.0520041, 0.0282634, 0.00212192
788.29199709700003496, -0.000793097, -0.00253843, -0.000653146, -0.0563018, 0.0283985, 0.00247515
788.32531346400003258, -0.000786634, -0.00254212, -0.000654552, -0.0510629, 0.0281662, 0.00213898
788.35877979700001106, -0.000784183, -0.00254064, -0.000653418, -0.0563634, 0.0282257, 0.00260116
788.39209613100001661, -0.00078294, -0.00254411, -0.000655309, -0.0533689, 0.0279628, 0.00253183
788.42541246899997986, -0.000787238, -0.0025498, -0.00066015, -0.0468414, 0.0283582, 0.0021364
788.45872876900000392, -0.000787529, -0.00255152, -0.000659684, -0.0521424, 0.0284008, 0.00221916
788.49204513100005443, -0.000795228, -0.00254682, -0.000646251, -0.0475143, 0.0285898, 0.00247416
788.52536146399995687, -0.00079827, -0.002549, -0.000645096, -0.046118, 0.0284145, 0.00193407
788.558677796999973, -0.00079936, -0.00254914, -0.000644427, -0.0478834, 0.0287995, 0.00113885
788.59199409699999705, -0.000800331, -0.00255092, -0.000641189, -0.0532009, 0.0300148, -5.30455e-05
788.62531041099998674, -0.000800798, -0.00255347, -0.00063667, -0.0517579, 0.0307411, 0.00035334
788.65862676899996586, -0.000801153, -0.00255153, -0.000634665, -0.0562191, 0.0321941, -0.00123006
788.69209312999998929, -0.000799923, -0.00254661, -0.000631848, -0.0601571, 0.0326474, -0.00272224
788.7254094019999684, -0.000799353, -0.00254492, -0.000628037, -0.0533979, 0.0309729, -0.000794498
788.75872574000004533, -0.000798608, -0.00254653, -0.000627003, -0.0463759, 0.0293002, 0.00124714
788.79204209700003503, -0.000799975, -0.0025479, -0.000624818, -0.0500313, 0.0298986, 0.000571775
788.82535843000005116, -0.000799713, -0.0025468, -0.000621423, -0.0567393, 0.0310992, -0.000978045
788.85867479199998797, -0.000799667, -0.00254591, -0.000616462, -0.0585392, 0.0315323, -0.00148263
788.89199109699995915, -0.00080137, -0.00254659, -0.000615478, -0.0563091, 0.0313701, -0.00088522
788.92530743500003609, -0.000804357, -0.00254831, -0.000617939, -0.0553471, 0.0313205, -0.000510885
788.95862379699997291, -0.000809743, -0.00254778, -0.000617247, -0.0584195, 0.0314638, -0.00133952
788.99194009699999697, -0.000810909, -0.00254722, -0.000613831, -0.0587157, 0.0319405, -0.00158261
789.02525643499996022, -0.000806119, -0.00254215, -0.000608147, -0.0583184, 0.0318634, -0.00233595
789.05872279699997307, -0.000804993, -0.00253525, -0.000601613, -0.0619399, 0.0314867, -0.00351125
789.0920391299999892, -0.000804106, -0.00252672, -0.000597672, -0.0614785, 0.0319572, -0.00277585
789.12535543000001326, -0.000805812, -0.00252301, -0.000600736, -0.0577762, 0.0319632, -0.00165473
789.15867179700001088, -0.000809834, -0.00252646, -0.000610717, -0.0547104, 0.032136, -0.000641764
789.19198809700003494, -0.000815082, -0.00253153, -0.000621009, -0.0540528, 0.0324179, -0.000382378
789.22530446400003257, -0.000817172, -0.0025283, -0.000622087, -0.0548379, 0.0320771, -0.00101255
789.25862076400005662, -0.000811157, -0.0025277, -0.000623699, -0.0528846, 0.0324456, -0.000511682
789.29193709699995907, -0.000809785, -0.00252337, -0.000623745, -0.0533543, 0.032696, -0.000695185
789.32525340200004393, -0.000806252, -0.00252042, -0.000625571, -0.0556028, 0.0316752, -0.00121613
789.35856979699997282, -0.000805393, -0.00252857, -0.000640563, -0.0554298, 0.0318816, -0.000871871
789.3920361299999513, -0.000804497, -0.00253416, -0.000650113, -0.0539236, 0.0329841, -0.000620025
789.42535246399995685, -0.000801252, -0.00254052, -0.000661718, -0.0511402, 0.0348449, -0.000583872
789.4586687680000523, -0.000795528, -0.00254625, -0.000672193, -0.0490243, 0.0360461, -0.000416331
789.49198509699999704, -0.000789741, -0.00254831, -0.000677131, -0.0522352, 0.0341542, -0.000560197
789.52530146399999467, -0.000786882, -0.0025489, -0.00067684, -0.0487061, 0.0362178, -0.000477758
789.55861776799997642, -0.000782876, -0.00256424, -0.000701811, -0.0511466, 0.0349184, -0.000591632
789.59193430699997407, -0.000779375, -0.00256061, -0.000699633, -0.0513111, 0.0347388, -0.000541565
789.62525043000005098, -0.000776769, -0.0025595, -0.00069732, -0.0471153, 0.0365692, -0.000695077
789.65856676800001424, -0.000773625, -0.00255962, -0.000698086, -0.0494983, 0.0358644, -0.000738677
789.69188310200001979, -0.000770714, -0.00255831, -0.000696663, -0.0492501, 0.035342, -0.000919861
789.72534946400003264, -0.000765151, -0.0025591, -0.000691338, -0.0471617, 0.0360633, -0.00136553
789.7586657640000567, -0.000762648, -0.00256587, -0.000689326, -0.0475621, 0.036297, -0.00200701
789.79198210200001995, -0.000770292, -0.00257454, -0.000685912, -0.051617, 0.0364172, -0.00147538
789.82529842099995676, -0.000767371, -0.00257313, -0.000676421, -0.055338, 0.0353659, -0.00110852
789.8586147969999729, -0.000767848, -0.00257662, -0.000670212, -0.0527557, 0.0356781, -0.00122695
789.89193112999998903, -0.0007682, -0.00258293, -0.000671382, -0.0469851, 0.0366657, -0.00165506
789.92524743499996021, -0.000772779, -0.00259422, -0.000673527, -0.0450117, 0.0382402, -0.00210565
789.95856376400001864, -0.000773859, -0.0026059, -0.00067097, -0.0428734, 0.0388769, -0.00268447
789.99188013499997396, -0.000776481, -0.00260657, -0.00066687, -0.0385332, 0.040027, -0.00368352
790.02519651600005091, -0.000776211, -0.00260813, -0.00066723, -0.0435995, 0.0395479, -0.00351446
790.05851279700004852, -0.000776717, -0.0026076, -0.000664176, -0.0528658, 0.0397357, -0.00277225
790.09197906800000055, -0.000778907, -0.00261205, -0.000660071, -0.0487607, 0.0387482, -0.00254004
790.12529546400003255, -0.000780533, -0.00261792, -0.000657136, -0.0456017, 0.038391, -0.0022002
790.15861176800001431, -0.000780687, -0.00262042, -0.000657156, -0.0470803, 0.0384378, -0.00237147
790.19192813999995906, -0.000780072, -0.00262133, -0.000654747, -0.0455491, 0.0382207, -0.00237118
790.22524443500003599, -0.000769736, -0.00261375, -0.000632714, -0.0477305, 0.0387925, -0.00287437
790.25856079699997281, -0.000766948, -0.00261065, -0.000629822, -0.05101, 0.038985, -0.00341666
790.29187709699999687, -0.0007703, -0.00261241, -0.000631881, -0.0529938, 0.0390968, -0.00366607
790.32519346399999449, -0.000771438, -0.00261659, -0.000637007, -0.0498001, 0.0389845, -0.00305499
790.35850976400001855, -0.000771275, -0.00262048, -0.000641422, -0.050098, 0.0391006, -0.00309912
790.39182609700003468, -0.00077095, -0.00262077, -0.000636612, -0.0522428, 0.0391116, -0.00365418
790.42529243499996028, -0.000766045, -0.00261769, -0.000629462, -0.0531039, 0.0391885, -0.00406094
790.45860874000004515, -0.000769074, -0.00261575, -0.000624949, -0.0526422, 0.0395542, -0.0042751
790.49192513000002691, -0.000766794, -0.00260691, -0.00061359, -0.0546354, 0.0390812, -0.00501192
790.52524143000005097, -0.000765847, -0.00259436, -0.0006038, -0.054937, 0.0385903, -0.00527454
790.55855778299996928, -0.000765481, -0.00257968, -0.000601664, -0.0534831, 0.0387325, -0.0043889
790.59187409699995897, -0.000767715, -0.00256668, -0.000610365, -0.0510107, 0.0396475, -0.00355465
790.6251904350000359, -0.000772754, -0.00255664, -0.000616316, -0.0496443, 0.040047, -0.00305209
790.6585067920000256, -0.00077695, -0.00255086, -0.000623341, -0.0489991, 0.0392257, -0.00263358
790.69182312999998885, -0.000777668, -0.00255192, -0.000627946, -0.0520729, 0.0381853, -0.0034608
790.7251394639999944, -0.000778716, -0.00255145, -0.000631072, -0.0505772, 0.0394836, -0.00334147
790.75845576400001846, -0.000777675, -0.00255051, -0.000635317, -0.049323, 0.0407411, -0.00336776
790.79192234399999961, -0.000773848, -0.00254868, -0.000645497, -0.0476908, 0.0419564, -0.00319266
790.82523843000001307, -0.000766752, -0.00254774, -0.000654917, -0.0462249, 0.0430102, -0.00310673
790.85855476799997632, -0.000755453, -0.00254487, -0.00065889, -0.0466303, 0.0424662, -0.00329321
790.89187110199998187, -0.000743928, -0.00253825, -0.000663978, -0.0489155, 0.0405788, -0.00320783
790.925187434999998, -0.000734353, -0.00253693, -0.000668297, -0.0482353, 0.0411528, -0.00319016
790.95850376800001413, -0.000726878, -0.00254081, -0.000672803, -0.0477678, 0.0418537, -0.0032518
790.99182009699995888, -0.000719869, -0.00254883, -0.00067759, -0.0457398, 0.0430518, -0.00339843
791.02513643500003582, -0.000712385, -0.0025618, -0.000689444, -0.0470545, 0.0424476, -0.00341239
791.05845279699997263, -0.000703899, -0.00256206, -0.000676585, -0.046618, 0.0425961, -0.00345944
791.09176912999998876, -0.000699538, -0.00256299, -0.000674403, -0.0462022, 0.0427153, -0.00358595
791.12523546800002805, -0.000694802, -0.00256203, -0.000671937, -0.0441228, 0.0437913, -0.0036682
791.15855177299999923, -0.000689246, -0.00256416, -0.000669079, -0.0427108, 0.0444792, -0.00394802
791.19186810200005766, -0.00068537, -0.00256295, -0.000667281, -0.0451827, 0.0435999, -0.00391736
791.22518443000001298, -0.000677437, -0.00255444, -0.000657281, -0.0456672, 0.0432776, -0.00326703
791.25850079700001061, -0.000667719, -0.00254651, -0.000647244, -0.0465946, 0.0444867, -0.00288441
791.29181713000002674, -0.000656411, -0.00254204, -0.000637299, -0.0470072, 0.0438455, -0.00281436
791.32513343000005079, -0.000653328, -0.00254243, -0.00062956, -0.0452112, 0.0433368, -0.00293898
791.35844979700004842, -0.000654035, -0.0025431, -0.000629273, -0.0426529, 0.0449419, -0.00476996
791.39176612999995086, -0.000654, -0.0025456, -0.000625068, -0.0403647, 0.0459035, -0.00415183
791.42508246299996699, -0.000665982, -0.00255106, -0.000621661, -0.0423147, 0.0480073, -0.00544494
791.45839879699997255, -0.000670736, -0.00255438, -0.000620612, -0.0465113, 0.0479103, -0.00713008
791.49186510200001976, -0.000674645, -0.00255689, -0.000616174, -0.0444281, 0.0488549, -0.00635505
791.52518140600000152, -0.000674564, -0.00255837, -0.000612082, -0.0434478, 0.0490067, -0.00537982
791.55849773500005995, -0.000674352, -0.00255518, -0.000611852, -0.0486649, 0.0493487, -0.00592743
791.59181412999998884, -0.000674232, -0.00255269, -0.000607879, -0.0497891, 0.0490124, -0.00559189
791.62513043000001289, -0.000675886, -0.00255213, -0.000602989, -0.0487958, 0.048334, -0.00498117
791.65844676300002902, -0.000679788, -0.00255168, -0.000597027, -0.0486993, 0.0478816, -0.00557755
791.69176313000002665, -0.000685172, -0.00255157, -0.000592792, -0.0463035, 0.0475575, -0.00589326
791.72507943000005071, -0.000695874, -0.00255319, -0.000589995, -0.0440898, 0.0476229, -0.00625694
791.75839576299995315, -0.000708573, -0.00255217, -0.000593699, -0.0457796, 0.0483453, -0.00660077
791.7917120969999587, -0.000715182, -0.00254894, -0.000591043, -0.0449892, 0.0497479, -0.00669522
791.82517846300004294, -0.000717423, -0.00254477, -0.000589412, -0.0497794, 0.0508743, -0.00726685
791.85849479700004849, -0.000721259, -0.0025421, -0.000588756, -0.0495736, 0.0508458, -0.00691485
791.89181110100003025, -0.000727422, -0.00254332, -0.000587882, -0.0472274, 0.0506052, -0.00640063
791.92512742999997499, -0.000732825, -0.00254576, -0.000589564, -0.0462683, 0.050632, -0.00625191
791.958443801000044, -0.000737958, -0.00255104, -0.000588261, -0.0457939, 0.0506649, -0.00619752
791.99176010099995437, -0.000742981, -0.0025565, -0.000585162, -0.0466612, 0.0507846, -0.00628458
792.02507368900000984, -0.000746802, -0.00256174, -0.00058218, -0.0466219, 0.0512242, -0.00621697
792.0583855869999752, -0.000740543, -0.00257332, -0.000596371, -0.0457549, 0.0520037, -0.00623281
792.09169770100004371, -0.000736274, -0.0025736, -0.00058939, -0.048602, 0.0517368, -0.00687327
792.12500982200003818, -0.000734706, -0.00257453, -0.000587663, -0.0470161, 0.0523235, -0.00642281
792.15847212400001354, -0.0007333, -0.00257451, -0.000587393, -0.0500889, 0.0508701, -0.00710399
792.1917841550000503, -0.000722635, -0.00257735, -0.000597709, -0.0494921, 0.0516565, -0.00717618
792.22509635699998398, -0.000721616, -0.00258402, -0.00060161, -0.0476228, 0.0532682, -0.00733089
792.2584084930000472, -0.00072069, -0.00259012, -0.000607043, -0.0474686, 0.0531549, -0.00756237
792.29172066600006019, -0.000717671, -0.00259639, -0.000617402, -0.0476355, 0.0526909, -0.00717403
792.32503286400003617, -0.000720382, -0.0026055, -0.000633242, -0.0469521, 0.0529508, -0.00568039
792.35834500400005709, -0.00072691, -0.00261703, -0.000656515, -0.046913, 0.0527896, -0.00581381
792.39165717299999869, -0.000726591, -0.0026215, -0.000670029, -0.0459696, 0.0538084, -0.00591026
792.42496933699999317, -0.000724014, -0.00260787, -0.000664427, -0.0452556, 0.0543862, -0.00638075
792.45828153900004054, -0.00071896, -0.00257973, -0.000645267, -0.0469134, 0.0545041, -0.00755378
792.49159367400000065, -0.000708207, -0.00254733, -0.000622765, -0.0465755, 0.0539985, -0.00749885
792.52505585799997334, -0.000701854, -0.00253906, -0.000618195, -0.0482576, 0.0527252, -0.00755784
792.55836799799999426, -0.000694558, -0.00253382, -0.000613692, -0.0505783, 0.0527251, -0.00761281
792.59168019499998081, -0.000687781, -0.00253282, -0.000609846, -0.0467591, 0.0536663, -0.00691377
792.62499233100004403, -0.000680851, -0.00253157, -0.000607031, -0.0479617, 0.053542, -0.00671106
792.65830453299997771, -0.000673955, -0.00252903, -0.000605975, -0.0512884, 0.0532737, -0.00673094
792.69161667299999863, -0.000668957, -0.00253009, -0.000603246, -0.0523006, 0.0531334, -0.00667566
792.72492883699999311, -0.000669236, -0.00252994, -0.000598249, -0.0521136, 0.0531496, -0.00666673
792.75824103900004047, -0.000670171, -0.00252824, -0.000594794, -0.0530034, 0.0531355, -0.00660122
792.79155320799998208, -0.000669462, -0.00252096, -0.00059274, -0.0508967, 0.0535947, -0.00726224
792.82486534300005587, -0.000670581, -0.0025163, -0.000595329, -0.0507889, 0.0533032, -0.00773023
792.85832752700002857, -0.000675827, -0.00251988, -0.000597575, -0.0491461, 0.0543097, -0.00884953
792.89163969499998075, -0.000686461, -0.00253754, -0.000594591, -0.0464118, 0.0559546, -0.0102294
792.92495186400003604, -0.000690979, -0.00253936, -0.000599455, -0.0470929, 0.0562323, -0.0100874
792.95826400400005696, -0.000695636, -0.00253876, -0.000602517, -0.0476744, 0.0564843, -0.00991142
792.99157620200003294, -0.000700996, -0.00254141, -0.00060621, -0.0471706, 0.0570177, -0.0102517
793.0248905470000409, -0.000692398, -0.0025685, -0.000620488, -0.0457706, 0.0585985, -0.0123245
793.05820704300003854, -0.000689927, -0.0025704, -0.000621763, -0.0437042, 0.0590575, -0.0136233
793.09152337499995156, -0.000687325, -0.00256999, -0.000626317, -0.0420782, 0.0594001, -0.0146662
793.1248397130000285, -0.000688436, -0.00257097, -0.000625817, -0.0450244, 0.058776, -0.0124878
793.15815657500002089, -0.000688848, -0.0025712, -0.000623835, -0.0492792, 0.0580851, -0.00954798
793.19147238000005018, -0.000686339, -0.00256859, -0.000623874, -0.0446762, 0.0584305, -0.012515
793.22493871300002866, -0.000686542, -0.00257033, -0.000623812, -0.0403752, 0.0587399, -0.0154797
793.25825504600004479, -0.000687964, -0.00257212, -0.000623975, -0.0433687, 0.0588668, -0.0132903
793.29157135100001597, -0.00069043, -0.00257158, -0.000619517, -0.0480368, 0.0585953, -0.0101973
793.32488767999996071, -0.000691298, -0.00257433, -0.000615632, -0.0463847, 0.0587494, -0.0115736
793.35820404599996891, -0.000693557, -0.00257889, -0.000613072, -0.0461051, 0.0587209, -0.0116248
793.39152037999997447, -0.000691617, -0.0025807, -0.000607354, -0.0466004, 0.0593094, -0.0118504
793.42483668500005933, -0.000680228, -0.00255796, -0.000607049, -0.045036, 0.0579403, -0.0136686
793.45815304600000673, -0.000677346, -0.0025549, -0.000605462, -0.048229, 0.0584857, -0.0118783
793.49146938000001228, -0.000675, -0.00255365, -0.000603708, -0.0520439, 0.0598039, -0.0101918
793.52478571300002841, -0.000672854, -0.00255315, -0.000601024, -0.0501233, 0.0599998, -0.0104397
793.55825201799996194, -0.000673027, -0.00255746, -0.000607605, -0.0477863, 0.0596816, -0.0105986
793.59156834600003094, -0.000675636, -0.00256461, -0.0006151, -0.047584, 0.0595612, -0.0104994
793.62488471300002857, -0.000675656, -0.00256716, -0.000612994, -0.0496605, 0.0607289, -0.00984383
793.6582010460000447, -0.000673381, -0.00256914, -0.000606468, -0.0500483, 0.0611688, -0.00995669
793.69151735100001588, -0.000672455, -0.00256677, -0.000605717, -0.0553967, 0.062366, -0.00709529
793.72483368500002143, -0.000669766, -0.00256393, -0.000605755, -0.0514024, 0.0620301, -0.00876345
793.75815001800003756, -0.000665325, -0.00255706, -0.000602913, -0.0526206, 0.0622217, -0.008786
793.79146634599999288, -0.000666248, -0.00256197, -0.000605731, -0.048218, 0.0616696, -0.0099313
793.82478268399995613, -0.000664627, -0.0025679, -0.000606883, -0.0492259, 0.0612718, -0.00983917
793.85809901300001457, -0.000670655, -0.0025707, -0.000607131, -0.0533501, 0.0609096, -0.00765668
793.89141531799998575, -0.000674442, -0.00256709, -0.00060522, -0.0544642, 0.0608984, -0.00757807
793.92488171299999067, -0.000673599, -0.00255172, -0.000603566, -0.0552911, 0.0610728, -0.00730171
793.9581980460000068, -0.000672008, -0.00252629, -0.000599701, -0.0546332, 0.0612253, -0.00733935
793.99151434600003086, -0.000675635, -0.00250756, -0.000596031, -0.0527616, 0.061169, -0.00799339
794.02483071300002848, -0.000690462, -0.00250736, -0.000595735, -0.0507321, 0.0608132, -0.00884966
794.05814710300001025, -0.000709613, -0.00252453, -0.000602118, -0.0504633, 0.0609605, -0.00914485
794.09146338000005017, -0.000724382, -0.0025392, -0.000609173, -0.052713, 0.0609324, -0.00811151
794.12477971299995261, -0.0007339, -0.00254429, -0.000613126, -0.053749, 0.0609682, -0.00767044
794.15809601800003747, -0.00073965, -0.00254104, -0.000616562, -0.0536876, 0.061028, -0.00763056
794.19141232300000866, -0.000741255, -0.00254185, -0.000621951, -0.0523475, 0.061136, -0.00831588
794.22472867999999835, -0.000726313, -0.00251417, -0.000618949, -0.0541022, 0.0610983, -0.00753592
794.25819501800003763, -0.000714921, -0.00247651, -0.000610812, -0.0540911, 0.0610261, -0.00718439
794.29151131800006169, -0.00070735, -0.00245867, -0.000608323, -0.0523356, 0.0609413, -0.00818948
794.32482768399995621, -0.000705437, -0.0024529, -0.00061247, -0.0524088, 0.0608914, -0.00818868
794.35814398900004107, -0.000700905, -0.00244305, -0.00061646, -0.0536371, 0.0608497, -0.0075577
794.39146034600003077, -0.000698686, -0.00243257, -0.000621568, -0.0536171, 0.0608454, -0.00754119
794.42477665100000195, -0.000695778, -0.00242216, -0.000627301, -0.0534673, 0.0608511, -0.00762419
794.45809301300005245, -0.000692784, -0.00241281, -0.000633501, -0.0535322, 0.0608499, -0.00760885
794.4914093510000157, -0.000691724, -0.00240637, -0.000640232, -0.0534728, 0.0608367, -0.0076259
794.52472571299995252, -0.000692953, -0.0023992, -0.0006465, -0.053779, 0.0608118, -0.0074149
794.55804201299997658, -0.000696069, -0.00239402, -0.000652972, -0.0537234, 0.0608147, -0.00745299
794.5913583799999742, -0.000699949, -0.0023897, -0.000658044, -0.0537863, 0.0608167, -0.00740988
794.62482471299995268, -0.000705282, -0.00238848, -0.000664114, -0.0537405, 0.060816, -0.00744862
794.65814098400005605, -0.000712162, -0.00238989, -0.000671766, -0.0538766, 0.0608033, -0.00736523
794.69145737999997436, -0.000721581, -0.00239532, -0.000681097, -0.0538405, 0.0608046, -0.00737869
794.72477368399995612, -0.000730118, -0.00240044, -0.000689315, -0.0540987, 0.0608007, -0.00723567
794.75809001799996167, -0.000739892, -0.00240632, -0.00069732, -0.0541519, 0.0608095, -0.00719767
794.79140634600003068, -0.000753056, -0.00241275, -0.00070463, -0.0543553, 0.0608152, -0.00704352
794.82472271300002831, -0.000772187, -0.00242293, -0.000713519, -0.0542845, 0.0607623, -0.00708751
794.85803901300005236, -0.000792951, -0.00243658, -0.000722388, -0.0542183, 0.0607985, -0.00712517
794.89135538000004999, -0.000812164, -0.00245018, -0.000732285, -0.0544979, 0.0608066, -0.0069935
794.92467167999996036, -0.000833781, -0.00246503, -0.000743522, -0.0544022, 0.0608231, -0.00701852
794.95813801799999965, -0.000854779, -0.00247903, -0.000755491, -0.0545281, 0.0608142, -0.00696284
794.99145438000005015, -0.000877969, -0.0024935, -0.000765222, -0.0545805, 0.0607945, -0.00691214
795.02477068400003191, -0.00090323, -0.0025073, -0.000775085, -0.0546166, 0.0607716, -0.00689356
795.05808704599996872, -0.000925628, -0.00251946, -0.000783889, -0.0547667, 0.0608166, -0.00681823
795.09140337999997428, -0.000948063, -0.00253445, -0.000793616, -0.0546883, 0.0608182, -0.0068383
795.12471971299999041, -0.000972186, -0.00254789, -0.000802281, -0.0547987, 0.0608286, -0.00675494
795.15803604600000654, -0.000990863, -0.00255911, -0.000811261, -0.0548898, 0.0608564, -0.00673859
795.19135234600003059, -0.0010098, -0.00257029, -0.000820752, -0.0549676, 0.0608352, -0.00667506
795.22466868399999385, -0.00102897, -0.00258014, -0.000829157, -0.0549454, 0.0608155, -0.00666193
795.25798904600003425, -0.00104923, -0.00259102, -0.00083786, -0.0549653, 0.0608046, -0.00666017
795.29130134599995472, -0.00107076, -0.00260297, -0.000846566, -0.0550734, 0.0608326, -0.00657401
795.32476768000003631, -0.00109202, -0.00261014, -0.000854766, -0.0552362, 0.0608198, -0.00648869
795.3580846790000578, -0.00111446, -0.00262304, -0.000865164, -0.0550536, 0.0608178, -0.0065951
795.39140035100001569, -0.00113434, -0.00263776, -0.000875059, -0.0550427, 0.0608287, -0.0066059
795.42471668400003182, -0.00115589, -0.00264999, -0.000882664, -0.0553491, 0.060827, -0.00640096
795.45803304599996864, -0.00117253, -0.00267899, -0.000897148, -0.0544388, 0.0608559, -0.00695907
795.49134932200001913, -0.00118871, -0.00270909, -0.000906189, -0.0547774, 0.0607937, -0.0067492
795.52466565099996387, -0.00121738, -0.0027143, -0.000905621, -0.0568817, 0.0607514, -0.00549714
795.55798204600000645, -0.00123538, -0.00274269, -0.000915444, -0.0543526, 0.0608653, -0.0069766
795.59129837900002258, -0.00125038, -0.00278173, -0.000927355, -0.051373, 0.0607912, -0.00852013
795.62461471300002813, -0.00118384, -0.00274364, -0.000898243, -0.0522329, 0.0607539, -0.00788249
795.65808101300001454, -0.0011917, -0.00273482, -0.000885636, -0.0577055, 0.0608085, -0.00524892
795.69139737900002274, -0.0011929, -0.00272904, -0.000879782, -0.0604105, 0.0609393, -0.00396213
795.72471371300002829, -0.00119199, -0.00272904, -0.000879252, -0.0576613, 0.0609686, -0.00524629
795.75803004600004442, -0.00119108, -0.00272917, -0.000878771, -0.0533299, 0.060882, -0.00778681
795.7913463510000156, -0.00118907, -0.00273005, -0.000879589, -0.0537117, 0.0611574, -0.00757087
795.82466268400003173, -0.00118818, -0.00273197, -0.000879387, -0.0536678, 0.0616056, -0.00737494
795.85797899399995003, -0.00118789, -0.00273159, -0.000879184, -0.0534911, 0.0619273, -0.00736542
795.89129534599999261, -0.00118727, -0.00273005, -0.000878806, -0.0563242, 0.0615142, -0.00622383
795.92461167900000873, -0.00118615, -0.0027301, -0.000879177, -0.056846, 0.0618941, -0.00619298
795.95792801300001429, -0.00118539, -0.0027294, -0.000880892, -0.0578684, 0.0616121, -0.0060574
795.99124435099997754, -0.00118501, -0.00272771, -0.000882374, -0.0617709, 0.0607405, -0.00598857
796.02471071299999039, -0.00118476, -0.00272834, -0.000881575, -0.0540912, 0.0623323, -0.00568358
796.05802701699997215, -0.00118467, -0.00272739, -0.000882917, -0.0591247, 0.0613015, -0.00592471
796.0913433509999777, -0.00118397, -0.00272687, -0.000883394, -0.0568905, 0.0617081, -0.00548879
796.1246597130000282, -0.00118248, -0.0027263, -0.000887078, -0.0544403, 0.0623378, -0.00552962
796.15797601300005226, -0.00118235, -0.00272582, -0.000889728, -0.0562774, 0.0616881, -0.00653519
796.19129235100001551, -0.001182, -0.00272622, -0.000888566, -0.0517942, 0.0625169, -0.0050163
796.22460867899997083, -0.00118103, -0.0027269, -0.000888692, -0.0496474, 0.0629919, -0.00530511
796.25792505100002927, -0.00118279, -0.00272429, -0.000889736, -0.0606765, 0.0607696, -0.00701632
796.29124137899998459, -0.00118188, -0.00272568, -0.000887996, -0.0557635, 0.0604417, -0.00408931
796.32455771299999014, -0.00118128, -0.00272627, -0.00088695, -0.0537249, 0.0613443, -0.00262914
796.35802401700004793, -0.00118146, -0.00272508, -0.000887276, -0.0585824, 0.0601833, -0.00440012
796.39134037899998475, -0.00118153, -0.00272479, -0.000886224, -0.0544206, 0.0606248, -0.00236859
796.42465674599998238, -0.0011819, -0.00272413, -0.000887619, -0.0614341, 0.0607377, -0.00830034
796.45797299800005931, -0.00118166, -0.00272407, -0.000887299, -0.0591802, 0.0620215, -0.00436849
796.49128937900002256, -0.00118087, -0.00272495, -0.000886861, -0.0536382, 0.0611411, -0.00231141
796.52460566000002018, -0.00118124, -0.0027239, -0.000887912, -0.0586586, 0.0630201, -0.00574266
796.55792201300005217, -0.00118033, -0.00272459, -0.000887369, -0.0541572, 0.0625627, -0.0020492
796.59123835100001543, -0.00118039, -0.00272481, -0.000886043, -0.0542354, 0.0619109, -0.000770673
796.62455467899997075, -0.00118037, -0.00272326, -0.000885279, -0.0588072, 0.0649126, -0.00290163
796.65787104599996837, -0.00118047, -0.0027244, -0.000882279, -0.0568638, 0.0623967, 0.000830063
796.69133735100001559, -0.00118044, -0.00272426, -0.000879774, -0.058856, 0.0652439, 0.00019024
796.72465370300005816, -0.00118053, -0.00272328, -0.000879185, -0.0608958, 0.0706025, -0.00213136
796.75797004599996853, -0.00118089, -0.00272246, -0.000879155, -0.0578975, 0.0692916, 3.5924e-06
796.79128637899998466, -0.00118089, -0.00272119, -0.000880659, -0.0609936, 0.0732072, -0.00148922
796.82460268399995584, -0.00118243, -0.00272057, -0.000880074, -0.0616206, 0.0749961, -0.00419788
796.85791901300001427, -0.00118287, -0.00272032, -0.000879529, -0.060072, 0.0717487, -0.00651484
796.89123537900002248, -0.00118351, -0.00272066, -0.000877266, -0.0573131, 0.0696457, -0.00150811
796.92455171300002803, -0.00118611, -0.00272306, -0.000877168, -0.0573057, 0.0656386, -0.0176434
796.95786804600004416, -0.00118593, -0.00272181, -0.000877809, -0.05974, 0.072381, -0.0178747
796.99118437900006029, -0.00118642, -0.00272123, -0.00087827, -0.065468, 0.0813107, -0.0173992
797.02450068400003147, -0.00119624, -0.00272977, -0.000867839, -0.0645362, 0.101377, -0.033403
797.05796702700001788, -0.00119687, -0.00273002, -0.00086806, -0.0628605, 0.101393, -0.0381331
797.09128337900006045, -0.00119763, -0.00272957, -0.000867434, -0.0623562, 0.104375, -0.0374057
797.12459968400003163, -0.00119822, -0.00272942, -0.000866931, -0.059592, 0.106459, -0.0362516
797.15791604599996845, -0.00119834, -0.00272932, -0.000866106, -0.0579273, 0.107991, -0.0325427
797.19123231699995813, -0.00119833, -0.0027293, -0.000865612, -0.0601593, 0.108996, -0.0265823
797.22454867900000863, -0.00119825, -0.00273007, -0.000865234, -0.0619453, 0.108094, -0.02488
797.25786504600000626, -0.0011979, -0.00273047, -0.000864496, -0.0605999, 0.105865, -0.0239145
797.29118137900002239, -0.00119813, -0.0027307, -0.000864059, -0.0607823, 0.105182, -0.0227372
797.32449767900004645, -0.00119877, -0.00273035, -0.000864122, -0.062159, 0.106187, -0.021343
797.35781404600004407, -0.00119931, -0.00273105, -0.000863491, -0.0603801, 0.104516, -0.0226286
797.39128038399996967, -0.00119962, -0.0027318, -0.000863077, -0.0604883, 0.103749, -0.0220376
797.42459667900004661, -0.00120009, -0.00273229, -0.000862994, -0.0607215, 0.103725, -0.0217059
797.45791304600004423, -0.00120077, -0.00273332, -0.000862957, -0.0601971, 0.103968, -0.0222855
797.4912293459999546, -0.0012011, -0.00273305, -0.000863103, -0.0607053, 0.104501, -0.022145
797.52454568400003154, -0.00120178, -0.00273224, -0.000863213, -0.0620066, 0.103794, -0.0186756
797.55786198900000272, -0.00120259, -0.00273247, -0.000862342, -0.0607292, 0.102877, -0.0222412
797.59117837899998449, -0.00120341, -0.00273222, -0.000862857, -0.0610049, 0.103255, -0.0193581
797.62449467900000855, -0.00120418, -0.00273252, -0.000862126, -0.0620323, 0.103717, -0.0195331
797.65781105500002468, -0.00120541, -0.00273305, -0.000862425, -0.0604314, 0.10404, -0.0214946
797.6911273790000223, -0.0012063, -0.00273261, -0.000863287, -0.060105, 0.103593, -0.0186593
797.72444371200003843, -0.00120678, -0.00273131, -0.000863446, -0.0615324, 0.102529, -0.0148846
797.75791004600000633, -0.00120722, -0.002731, -0.000863181, -0.0623967, 0.102449, -0.0123972
797.79122635099997751, -0.00120783, -0.00273123, -0.000862362, -0.0632539, 0.104086, -0.0140058
797.82454268399999364, -0.00120861, -0.00273112, -0.000862752, -0.0650382, 0.105256, -0.0117132
797.85785904600004415, -0.00120688, -0.00273188, -0.000865132, -0.0642928, 0.103365, -0.014333
797.89117537900006027, -0.00120652, -0.00273464, -0.000870414, -0.0632996, 0.103472, -0.0161825
797.92449167899997065, -0.00120546, -0.00273826, -0.000874606, -0.062949, 0.105021, -0.022159
797.95780804599996827, -0.00120301, -0.00274062, -0.000877422, -0.0642384, 0.106018, -0.0245641
797.99112434599999233, -0.0012027, -0.00273995, -0.0008757, -0.0677451, 0.106552, -0.0141301
798.02444071200000053, -0.00119998, -0.00274057, -0.000874598, -0.0681695, 0.107295, -0.0176965
798.05775701699997171, -0.00119829, -0.00273982, -0.000877628, -0.068428, 0.105461, -0.0112879
798.09122337899998456, -0.001198, -0.00273936, -0.000881406, -0.0676787, 0.107212, -0.00401664
798.12453968399995574, -0.00119834, -0.00274024, -0.000880685, -0.0653847, 0.109596, -0.00978819
798.15785604600000624, -0.00119821, -0.00274195, -0.000881371, -0.0620634, 0.112254, -0.0138662
798.19117235099997743, -0.00119671, -0.00274514, -0.0008782, -0.060276, 0.112096, -0.0208296
798.22448868399999355, -0.00119603, -0.0027459, -0.000878452, -0.0595233, 0.112022, -0.0277076
798.25780506000000969, -0.00119517, -0.00274538, -0.000879647, -0.061648, 0.105117, -0.0254828
798.29112134599995443, -0.00119375, -0.00274534, -0.00088022, -0.0629501, 0.103659, -0.0230993
798.32443768400003137, -0.0011931, -0.00274516, -0.000880623, -0.0636317, 0.100604, -0.0228286
798.35775404599996818, -0.00119208, -0.00274474, -0.000879053, -0.0637879, 0.100268, -0.022707
798.39107037899998431, -0.00119125, -0.00274584, -0.000879004, -0.0639489, 0.103151, -0.0219813
798.42438671200000044, -0.00119103, -0.00274686, -0.000877665, -0.0636626, 0.105223, -0.0244523
798.45785301199998685, -0.00119037, -0.00274748, -0.000878114, -0.0624496, 0.106399, -0.0238433
798.49116937899998447, -0.00118907, -0.00274739, -0.000879353, -0.0608268, 0.107824, -0.0223128
798.5244857120000006, -0.00118783, -0.00274753, -0.000877979, -0.0618525, 0.10882, -0.0216639
798.55780204600000616, -0.0011871, -0.00274855, -0.000876745, -0.0618687, 0.110227, -0.0203375
798.59111837900002229, -0.00118752, -0.00274878, -0.00087626, -0.0612954, 0.109513, -0.0213213
798.62443471200003842, -0.00118828, -0.00274883, -0.00087641, -0.0607155, 0.108936, -0.021698
798.65775101200006247, -0.00119044, -0.00274393, -0.000882888, -0.0593734, 0.107236, -0.0226127
798.6910673790000601, -0.00119123, -0.00274421, -0.000883135, -0.0590342, 0.107298, -0.0224777
798.72438371199996254, -0.00119152, -0.00274419, -0.000883688, -0.0628788, 0.107742, -0.0206528
798.75770073600006072, -0.00119167, -0.00274503, -0.00088257, -0.0664622, 0.108933, -0.0187294
798.79116635000002589, -0.00119216, -0.00274513, -0.000880119, -0.0658334, 0.10895, -0.0186634
798.82448267899997063, -0.00119242, -0.00274466, -0.000877779, -0.0680636, 0.110141, -0.0184559
798.85779902199999469, -0.00119209, -0.00274417, -0.000876941, -0.0709125, 0.11139, -0.0184888
798.8911153500000637, -0.00119262, -0.00274381, -0.000876066, -0.0732656, 0.112177, -0.0193277
798.92443171200000052, -0.00119276, -0.00274357, -0.000874951, -0.0732393, 0.111936, -0.01945
798.95774804600000607, -0.00119294, -0.00274306, -0.000873873, -0.0728158, 0.111238, -0.0203922
798.99106434600003013, -0.00119336, -0.00274258, -0.000874578, -0.0719325, 0.111054, -0.0215754
799.02438071200003833, -0.00119384, -0.00274195, -0.000874745, -0.0710493, 0.110925, -0.0213965
799.05769701700000951, -0.00119416, -0.00274228, -0.00087515, -0.0716973, 0.110131, -0.0205776
799.09101334599995425, -0.00119423, -0.00274262, -0.000875155, -0.071753, 0.109594, -0.0199374
799.12432968400003119, -0.00119431, -0.00274298, -0.000875766, -0.0705498, 0.108739, -0.0199514
799.15779601700000967, -0.00119429, -0.00274239, -0.000876775, -0.0703188, 0.109128, -0.0206641
799.19111237900006017, -0.00119445, -0.00274201, -0.000877351, -0.0714843, 0.108894, -0.0193291
799.22442867899997054, -0.00119458, -0.00274182, -0.000877278, -0.0715786, 0.108818, -0.019068
799.25774504599996817, -0.00119489, -0.00274245, -0.000877647, -0.070447, 0.109499, -0.019513
799.29106135000006361, -0.00119536, -0.00274256, -0.000877623, -0.0698163, 0.109497, -0.0196
799.32437768399995548, -0.00119629, -0.00274141, -0.000879444, -0.0692227, 0.108218, -0.0183539
799.35769401200002449, -0.00119649, -0.00274103, -0.000880342, -0.0703571, 0.10678, -0.0169186
799.39101037900002211, -0.00119663, -0.00274034, -0.00088089, -0.0688673, 0.105994, -0.0191472
799.42432671200003824, -0.00119668, -0.00274002, -0.000881295, -0.0680091, 0.104058, -0.020359
799.45764336900003855, -0.00119686, -0.00274021, -0.000881862, -0.0661986, 0.104, -0.0216761
799.4911093460000302, -0.00119708, -0.00273952, -0.000881294, -0.0658192, 0.099083, -0.0258705
799.5244257120000384, -0.0011972, -0.0027394, -0.000881416, -0.0654202, 0.0980943, -0.0238941
799.55774204600004396, -0.00119743, -0.00273954, -0.000881789, -0.0647055, 0.0989714, -0.0200917
799.59105837900006009, -0.00119774, -0.00273847, -0.000882207, -0.066806, 0.0940167, -0.0087989
799.62437468400003127, -0.00119745, -0.0027396, -0.000882271, -0.0651053, 0.106047, -0.00999609
799.65769104599996808, -0.0011976, -0.00273978, -0.000882161, -0.0655525, 0.107643, -0.010256
799.6910086789999923, -0.00119804, -0.00273998, -0.000882182, -0.0636918, 0.106308, -0.0117134
799.72432371200000034, -0.00119809, -0.00274095, -0.000881695, -0.0653787, 0.109187, -0.0201519
799.7576400460000059, -0.0011981, -0.00274198, -0.00088129, -0.0670842, 0.111869, -0.0234855
799.79095637900002203, -0.00119828, -0.00274211, -0.000881258, -0.0669585, 0.118392, -0.0222319
799.82442268399995555, -0.00119869, -0.00274175, -0.000881468, -0.0651499, 0.115459, -0.0167775
799.85773904500001663, -0.00119884, -0.00274125, -0.000881423, -0.0656038, 0.105361, -0.0118426
799.89105537900002219, -0.00119935, -0.00274092, -0.000882492, -0.0660235, 0.112295, -0.0020706
799.92437171200003831, -0.00119995, -0.00274075, -0.000883584, -0.0647145, 0.12212, 0.0112047
799.95768804500005444, -0.00120032, -0.00274054, -0.000884714, -0.0640068, 0.124633, 0.0222951
799.99100434499996481, -0.00120009, -0.00274204, -0.000885077, -0.0650704, 0.135827, 0.0203798
800.02432068400003118, -0.00119999, -0.00274258, -0.00088518, -0.0656344, 0.154659, 0.0250404
800.05763704499997857, -0.00120025, -0.00274135, -0.000884844, -0.0645223, 0.150502, 0.0402653
800.09095334500000263, -0.00119974, -0.0027414, -0.000883834, -0.0692574, 0.134948, 0.0344276
800.12426971200000025, -0.0011999, -0.00274157, -0.000884737, -0.0669858, 0.133472, 0.0474885
800.15758604500001638, -0.00120034, -0.00274177, -0.000885786, -0.0624154, 0.126852, 0.0565466
800.1910523500000636, -0.0012004, -0.00274207, -0.000886427, -0.0658769, 0.1392, 0.0459756
800.22436868399995546, -0.00120043, -0.00274238, -0.000885071, -0.0705584, 0.12649, 0.0342383
800.25768498800005091, -0.00120008, -0.00274228, -0.000884513, -0.0653567, 0.124413, 0.0453186
800.29100134999998772, -0.00119974, -0.00274223, -0.000883417, -0.0648592, 0.111912, 0.0407724
800.32431767900004616, -0.00119946, -0.00274183, -0.000883768, -0.0644335, 0.106837, 0.0359995
800.35763404500005436, -0.00119981, -0.00274064, -0.00088559, -0.0644822, 0.102529, 0.0305625
800.39095037900005991, -0.00119999, -0.00273966, -0.000886032, -0.0642662, 0.0785807, 0.00824354
800.42426667899997028, -0.0011999, -0.00274051, -0.000886855, -0.0645712, 0.0971519, 0.00472792
800.45758301700004722, -0.00119978, -0.00274157, -0.000886161, -0.0665978, 0.112509, -0.0167831
800.49089937899998404, -0.00119916, -0.00274247, -0.000885504, -0.0627272, 0.126396, -0.00582374
800.52436571700002332, -0.00119945, -0.00274337, -0.000884523, -0.0618386, 0.13176, -0.0140063
800.55768201199998657, -0.00119984, -0.00274155, -0.000885671, -0.0612706, 0.143537, -0.0186879
800.5909983450000027, -0.00120033, -0.00274152, -0.000884737, -0.0620616, 0.131168, -0.0110059
800.62431467900000825, -0.00120062, -0.00274143, -0.00088391, -0.0629621, 0.121931, -0.0131598
800.65763101200002438, -0.00120072, -0.00274137, -0.000884537, -0.0630215, 0.132945, -0.00441979
800.69094737900002201, -0.00120064, -0.0027412, -0.000884802, -0.0637008, 0.133302, -0.00417648
800.72426371200003814, -0.00120057, -0.00274093, -0.000884515, -0.0640848, 0.130055, -0.00661859
800.7575800120000622, -0.00120053, -0.00274088, -0.000883928, -0.0653884, 0.127305, -0.0103115
800.79089639300002545, -0.00120007, -0.00274071, -0.000883142, -0.065725, 0.124243, -0.00781602
800.82421271199996227, -0.00119935, -0.00273821, -0.000882742, -0.063619, 0.124495, 0.00659717
800.85752898800001276, -0.00119942, -0.00273765, -0.000882867, -0.0627605, 0.136596, 0.011778
800.89099535000002561, -0.00119993, -0.00273707, -0.000882554, -0.0656897, 0.143762, 0.00654232
800.92431167899997035, -0.00120053, -0.00273615, -0.00088204, -0.0657998, 0.157863, 0.0161554
800.95762805000003937, -0.00120039, -0.0027359, -0.000881129, -0.0673667, 0.16499, 0.0240522
800.99094439300006343, -0.00120033, -0.0027356, -0.000881631, -0.0696983, 0.16198, 0.0276864
801.02426064999997379, -0.0012003, -0.00273525, -0.000883337, -0.0690521, 0.173281, 0.0355918
801.05757698800005073, -0.00119993, -0.00273474, -0.000885425, -0.0675251, 0.172703, 0.0471193
801.09089337900002192, -0.00119961, -0.00273467, -0.000884613, -0.0695893, 0.165458, 0.0410284
801.12420968300000368, -0.00119866, -0.00273511, -0.0008846, -0.068961, 0.167832, 0.0382023
801.15752601200006211, -0.001198, -0.00273495, -0.000884692, -0.0688031, 0.165732, 0.0358637
801.19084234499996455, -0.00119756, -0.00273475, -0.000885176, -0.069018, 0.169118, 0.0392062
801.22430871200003821, -0.0011967, -0.00273446, -0.000885828, -0.0681694, 0.173093, 0.0388264
801.25762498799997502, -0.00119693, -0.00273395, -0.00088628, -0.0670344, 0.17803, 0.0401529
801.29094135000002552, -0.00119755, -0.00273294, -0.000886868, -0.0672555, 0.175185, 0.0395717
801.32425771199996234, -0.00119801, -0.00273227, -0.000887207, -0.066628, 0.172241, 0.0404238
801.35757401700004721, -0.00119873, -0.00273165, -0.000886813, -0.0618004, 0.167263, 0.0430532
801.39089037899998402, -0.00119909, -0.00273085, -0.000886854, -0.0586726, 0.162124, 0.0429034
801.42420667900000808, -0.00119989, -0.00273088, -0.000887015, -0.0559355, 0.159628, 0.0412385
801.45752301200002421, -0.00120044, -0.00273096, -0.000886452, -0.0551208, 0.154684, 0.0437241
801.49083934500004034, -0.00120089, -0.00273187, -0.000885963, -0.0561011, 0.154292, 0.0410198
801.52415571200003797, -0.00120134, -0.00273252, -0.000885669, -0.0538791, 0.156116, 0.0327058
801.55747201200006202, -0.00120251, -0.00273198, -0.000883345, -0.0544699, 0.145845, 0.0307641
801.590938379000022, -0.00120296, -0.00273165, -0.000882822, -0.0566638, 0.14434, 0.0304482
801.62425471200003813, -0.0012033, -0.00273071, -0.000883171, -0.0571869, 0.140456, 0.0285787
801.65757101200006218, -0.00120205, -0.00272891, -0.00088275, -0.0589384, 0.129934, 0.0209023
801.69088734499996463, -0.00120161, -0.00272969, -0.000882199, -0.0585219, 0.133757, 0.0161248
801.72420368300004156, -0.00120151, -0.0027304, -0.000881618, -0.0576086, 0.136256, 0.0112327
801.75752004499997838, -0.00120173, -0.00273006, -0.000882206, -0.0587951, 0.131673, 0.0121861
801.79083635000006325, -0.00120159, -0.00273003, -0.000881757, -0.0607786, 0.129561, 0.00701702
801.82415271200000007, -0.00120164, -0.00273041, -0.000881204, -0.0607815, 0.133604, 0.00354553
801.85746901200002412, -0.00120187, -0.00273081, -0.000881172, -0.0630094, 0.134637, 0.0090876
801.89078534500004025, -0.001202, -0.00273049, -0.000881896, -0.0640196, 0.131453, 0.0148147
801.92425167900000815, -0.0012019, -0.00273091, -0.000881744, -0.0636901, 0.137099, 0.0126508
801.95756804500001635, -0.00120195, -0.00273172, -0.000881894, -0.0612332, 0.146249, 0.0150022
801.99088431699999546, -0.00120231, -0.00273233, -0.000882845, -0.0594059, 0.153607, 0.0225546
802.02420065499995872, -0.00120252, -0.00273291, -0.000882786, -0.0614974, 0.161734, 0.0240721
802.05751698799997484, -0.00120243, -0.00273354, -0.000882351, -0.065597, 0.167613, 0.0251779
802.09083343099996455, -0.00120273, -0.00273402, -0.000882577, -0.0656129, 0.173672, 0.0337568
802.12414971199996216, -0.00120309, -0.00273387, -0.000883282, -0.0629273, 0.173481, 0.0422745
802.15746601199998622, -0.00120328, -0.0027342, -0.000883569, -0.060556, 0.176851, 0.0463889
802.19078235000006316, -0.00120289, -0.00273474, -0.000883142, -0.0596186, 0.180705, 0.0487923
802.2240986829999656, -0.00120313, -0.00273455, -0.000883624, -0.0587215, 0.183645, 0.0563876
802.25741606899998715, -0.00120306, -0.00273457, -0.000883902, -0.0580048, 0.187201, 0.0569673
802.29088137799999458, -0.00120342, -0.00273472, -0.000883924, -0.0574609, 0.190868, 0.0552898
802.32419869800003198, -0.00120383, -0.00273437, -0.000884177, -0.0587631, 0.191818, 0.0555007
802.35751404500001627, -0.00120432, -0.0027341, -0.000884516, -0.06017, 0.189812, 0.0527787
802.39083034500004032, -0.00120501, -0.00273378, -0.000884823, -0.0628586, 0.186175, 0.0493924
802.42414668300000358, -0.00120539, -0.00273367, -0.000885394, -0.0624868, 0.186305, 0.0514386
802.45746298300002763, -0.00120613, -0.00273326, -0.000886219, -0.0648822, 0.188562, 0.0533455
802.49077934499996445, -0.00120629, -0.00273378, -0.000886485, -0.0625885, 0.191363, 0.0598497
802.52409571199996208, -0.00120603, -0.00273385, -0.000885952, -0.0633478, 0.189097, 0.0617623
802.55741201700004694, -0.00120617, -0.00273385, -0.000885516, -0.0636296, 0.187471, 0.0577132
802.59072837799999434, -0.00120651, -0.0027344, -0.0008861, -0.0620831, 0.197517, 0.062016
802.62419465000004948, -0.00120678, -0.00273522, -0.000887444, -0.061567, 0.21064, 0.065886
802.6575110170000471, -0.00120697, -0.00273585, -0.000886921, -0.0593053, 0.221809, 0.0667334
802.6908273779999945, -0.00120727, -0.00273536, -0.000886424, -0.0600397, 0.218984, 0.0732407
802.72414365500003441, -0.00120758, -0.0027345, -0.000886435, -0.0605581, 0.205835, 0.0833979
802.75746004500001618, -0.00120786, -0.00273469, -0.000886251, -0.0628204, 0.20861, 0.0782397
802.79077634999998736, -0.00120877, -0.00273393, -0.000885686, -0.0548174, 0.208566, 0.089674
802.82409265000001142, -0.00120915, -0.0027337, -0.0008852, -0.0542747, 0.206057, 0.0914537
802.85740907399997468, -0.00120974, -0.00273385, -0.000884996, -0.0597541, 0.201017, 0.0853259
802.89072535000002517, -0.00120997, -0.0027339, -0.000885453, -0.0624445, 0.201543, 0.0856693
802.92404171199996199, -0.00121025, -0.00273398, -0.000885195, -0.0612662, 0.19809, 0.0855608
802.95750801200006208, -0.00121058, -0.00273407, -0.000884739, -0.0579749, 0.19768, 0.0905604
802.99082435000002533, -0.00121089, -0.00273383, -0.000884093, -0.0566155, 0.190416, 0.0859445
803.02414071199996215, -0.00121096, -0.00273388, -0.000883879, -0.0579172, 0.194687, 0.0800599
803.05745704499997828, -0.00121083, -0.00273343, -0.000884385, -0.0632226, 0.189436, 0.0801874
803.09077334500000234, -0.00121079, -0.00273337, -0.000884548, -0.0583234, 0.181923, 0.084596
803.12409005899996828, -0.00121076, -0.00273363, -0.000884554, -0.0596936, 0.191372, 0.0784422
803.15740598299998965, -0.00121088, -0.00273479, -0.000884293, -0.0569798, 0.210813, 0.0783883
803.19072237800003222, -0.0012112, -0.00273514, -0.000883172, -0.0589743, 0.211459, 0.0910483
803.22403867800005628, -0.00120958, -0.00273591, -0.000879024, -0.0598237, 0.180489, 0.116543
803.25735504500005391, -0.00120958, -0.00273522, -0.000878411, -0.0581148, 0.185073, 0.104097
803.29067135000002509, -0.00120866, -0.00273576, -0.000878838, -0.0603223, 0.197737, 0.0923024
803.32413767800005644, -0.00120833, -0.00273603, -0.000879516, -0.0576208, 0.214116, 0.0912613
803.35745401600001969, -0.00120839, -0.00273626, -0.000879291, -0.0600905, 0.227166, 0.0898534
803.39077037799995651, -0.00120866, -0.00273641, -0.000878342, -0.0669088, 0.223728, 0.0768557
803.4240866879999885, -0.00120862, -0.00273626, -0.000878481, -0.0690828, 0.216853, 0.0746303
803.45740304499997819, -0.00120828, -0.00273588, -0.000878335, -0.0700873, 0.21399, 0.0770137
803.49071935000006306, -0.00120869, -0.00273552, -0.000879919, -0.0623806, 0.216034, 0.0853776
803.52403571199999988, -0.00120847, -0.00273547, -0.00088127, -0.0608369, 0.218863, 0.0791177
803.55735204500001601, -0.00120848, -0.00273529, -0.000881575, -0.0613493, 0.216211, 0.0778037
803.59066837800003213, -0.00120875, -0.00273511, -0.000882285, -0.0576485, 0.213114, 0.0812365
803.62398467800005619, -0.00120826, -0.00273399, -0.000882332, -0.0620879, 0.207554, 0.0765785
803.65745101599998179, -0.00120873, -0.00273365, -0.000881539, -0.0648772, 0.203224, 0.0700193
803.69076737800003229, -0.00120857, -0.00273361, -0.000881999, -0.061773, 0.204665, 0.0651655
803.72408368300000348, -0.00120806, -0.00273303, -0.000882298, -0.0618, 0.200766, 0.0641076
803.7574000160000196, -0.00120451, -0.00273247, -0.000884568, -0.0595741, 0.195738, 0.0665182
803.79071634499996435, -0.00120319, -0.00273213, -0.000884855, -0.0576053, 0.196821, 0.0648037
803.82403267799998048, -0.00120243, -0.00273241, -0.000884534, -0.0570481, 0.201817, 0.0632302
803.8573490449999781, -0.0012017, -0.00273321, -0.000884681, -0.0556893, 0.211504, 0.0645769
803.89066537799999423, -0.00120089, -0.00273312, -0.000884656, -0.0558067, 0.210684, 0.0660044
803.92398167800001829, -0.00119964, -0.00273408, -0.000885138, -0.0564884, 0.21, 0.0699821
803.95729804500001592, -0.00119804, -0.00273503, -0.000885916, -0.0577528, 0.207458, 0.0636183
803.99061434500003998, -0.00119819, -0.00273585, -0.00088718, -0.0587336, 0.21545, 0.0617134
804.02408067800001845, -0.00119861, -0.00273544, -0.000887019, -0.0555589, 0.21361, 0.0609427
804.05739701200002401, -0.00119863, -0.00273479, -0.000887579, -0.0546814, 0.211551, 0.0610674
804.09071334500004014, -0.00119828, -0.00273565, -0.000888103, -0.0533214, 0.219339, 0.062207
804.12402971200003776, -0.00119804, -0.00273626, -0.000888402, -0.0543748, 0.220346, 0.0656893
804.15734601600001952, -0.00119811, -0.00273661, -0.000888135, -0.0547434, 0.220993, 0.0684143
804.19066237799995633, -0.00119796, -0.0027367, -0.000888355, -0.0530887, 0.220507, 0.0697482
804.22397867799998039, -0.00119765, -0.00273727, -0.000888588, -0.0554452, 0.220518, 0.0735451
804.25729501600005733, -0.00119791, -0.00273717, -0.000888834, -0.0554679, 0.220511, 0.0754601
804.29061134500000207, -0.00119742, -0.00273789, -0.000887935, -0.0539371, 0.222241, 0.0753592
804.32392771100001028, -0.00119718, -0.00273807, -0.000887968, -0.0542466, 0.220338, 0.0760507
804.35739404499997818, -0.00119711, -0.00273862, -0.000888097, -0.0546003, 0.219106, 0.0785526
804.39071037799999431, -0.00119629, -0.00273913, -0.000887346, -0.0529769, 0.221891, 0.0789379
804.42402671100001044, -0.0011956, -0.00273945, -0.000886987, -0.0523521, 0.221095, 0.0787586
804.45734304500001599, -0.00119518, -0.00273992, -0.000887104, -0.0506832, 0.221023, 0.0796185
804.49065934500004005, -0.00119493, -0.00273938, -0.000887794, -0.0520361, 0.220496, 0.0784577
804.52397567800005618, -0.00119471, -0.00273913, -0.000888093, -0.0550836, 0.21828, 0.0787352
804.55729201099995862, -0.00119436, -0.002739, -0.000887607, -0.0560427, 0.220602, 0.0794625
804.59060837799995625, -0.00119405, -0.00273952, -0.000887705, -0.0523519, 0.222064, 0.0802704
804.6239246779999803, -0.00119351, -0.00273977, -0.000886014, -0.0494872, 0.223914, 0.0791183
804.65724104499997793, -0.00119372, -0.00273905, -0.000885508, -0.0512325, 0.225185, 0.0772723
804.69055734500000199, -0.00119332, -0.002739, -0.000885802, -0.0522111, 0.224308, 0.077009
804.72402367799998046, -0.00119256, -0.0027373, -0.000886213, -0.0526641, 0.225248, 0.0730421
804.75734001099999659, -0.00119225, -0.00273609, -0.000886082, -0.0551011, 0.22584, 0.070268
804.79065637799999422, -0.00119198, -0.00273625, -0.000886104, -0.0567513, 0.225461, 0.0692369
804.8239726829999654, -0.00119152, -0.00273636, -0.000886612, -0.0598136, 0.224215, 0.0681207
804.8572890450000159, -0.00119109, -0.00273651, -0.000887469, -0.0619872, 0.223596, 0.0673921
804.89060534999998708, -0.00119128, -0.00273713, -0.000887255, -0.0600197, 0.223333, 0.0700848
804.92392171100004816, -0.00119142, -0.00273742, -0.000888013, -0.0615995, 0.220704, 0.0700511
804.95723804500005372, -0.00119101, -0.00273816, -0.00088737, -0.059489, 0.219802, 0.0717911
804.99055437799995616, -0.00119101, -0.0027377, -0.000886368, -0.05544, 0.22428, 0.071134
805.02387071099997229, -0.00119099, -0.00273749, -0.000885929, -0.0555731, 0.226381, 0.0707974
805.05733701099995869, -0.00119091, -0.0027378, -0.000885761, -0.0528533, 0.22499, 0.0715561
805.09065334499996425, -0.00119077, -0.00273896, -0.000884983, -0.0522566, 0.223944, 0.0733918
805.12396967799998038, -0.0011907, -0.0027387, -0.000884587, -0.0527392, 0.225277, 0.0728351
805.157286044999978, -0.00119037, -0.00273831, -0.000884314, -0.0553377, 0.227197, 0.0714863
805.19060234500000206, -0.0011906, -0.00273844, -0.000883443, -0.0554933, 0.226378, 0.0740577
805.22391867800001819, -0.00119056, -0.00273794, -0.000882547, -0.0538665, 0.227179, 0.0745435
805.25723498800005018, -0.00119045, -0.00273807, -0.00088293, -0.053849, 0.225977, 0.0736578
805.29055134500003987, -0.00119022, -0.00273828, -0.000882367, -0.0554765, 0.222797, 0.0754689
805.323867678000056, -0.00118963, -0.00273748, -0.000881545, -0.0542491, 0.222389, 0.0771528
805.35718416800000341, -0.00118878, -0.00273777, -0.000880676, -0.0538375, 0.218738, 0.0790382
805.39050037799995607, -0.00118692, -0.0027383, -0.000877158, -0.0532555, 0.212465, 0.0836614
805.42396671100004824, -0.00118654, -0.00273887, -0.000875497, -0.0531247, 0.211939, 0.0883026
805.45728312100004587, -0.00118605, -0.0027389, -0.000875325, -0.0535108, 0.212873, 0.085636
805.49059934499996416, -0.00118558, -0.00273817, -0.000876406, -0.0586886, 0.219384, 0.0787772
805.52391571099997236, -0.00118551, -0.00273819, -0.000877065, -0.0599302, 0.218626, 0.0772592
805.55723198299995147, -0.00118551, -0.00273763, -0.000879465, -0.0603534, 0.221662, 0.0738378
805.59054837799999405, -0.00118495, -0.00273666, -0.000877526, -0.0516658, 0.227098, 0.0800266
805.62386471100001017, -0.0011845, -0.00273583, -0.000876067, -0.0505057, 0.230688, 0.0809717
805.65718101100003423, -0.00118434, -0.0027352, -0.000877185, -0.0539973, 0.231199, 0.0759149
805.69049737800003186, -0.00118362, -0.00273472, -0.000879185, -0.0570935, 0.233671, 0.0716901
805.72381367800005592, -0.00118305, -0.00273356, -0.000881296, -0.0584498, 0.233792, 0.0701761
805.75728001100003439, -0.00118244, -0.00273296, -0.000883464, -0.0592432, 0.233818, 0.0667559
805.79059634899999764, -0.00118193, -0.00273213, -0.000884153, -0.0571805, 0.239927, 0.0662091
805.82391271100004815, -0.00118173, -0.0027314, -0.000884796, -0.0568678, 0.243033, 0.0649883
805.85722901600001933, -0.00118183, -0.00273151, -0.000885503, -0.0589591, 0.241336, 0.0617774
805.89054534499996407, -0.00118156, -0.00273164, -0.000885606, -0.0594503, 0.241551, 0.060259
805.92386171099997227, -0.0011817, -0.00273138, -0.000885085, -0.0604905, 0.241534, 0.0626451
805.95717804499997783, -0.00118141, -0.00273111, -0.000883949, -0.0577874, 0.236699, 0.0657943
805.99049437799999396, -0.00118132, -0.00273156, -0.00088241, -0.0546424, 0.226446, 0.0708051
806.02381071100001009, -0.00118047, -0.00272977, -0.00088245, -0.0552839, 0.234777, 0.0713187
806.05712704500001564, -0.00118077, -0.00272827, -0.000882971, -0.0571022, 0.237216, 0.0689897
806.09059337799999412, -0.00118161, -0.00272765, -0.000882485, -0.057612, 0.234079, 0.0662155
806.12390971100001025, -0.00118107, -0.00272748, -0.000883053, -0.0582803, 0.23222, 0.0620399
806.15722601599998143, -0.0011814, -0.00272754, -0.000884333, -0.0557428, 0.228143, 0.0644668
806.19054237800003193, -0.00118135, -0.00272923, -0.000883332, -0.0539075, 0.224542, 0.0773622
806.22385871100004806, -0.00118151, -0.00273062, -0.000885645, -0.054716, 0.221166, 0.0696797
806.25717501600001924, -0.00118165, -0.00273183, -0.000887909, -0.0550036, 0.219461, 0.073483
806.29049137799995606, -0.00118122, -0.00273322, -0.000888068, -0.0520827, 0.215932, 0.0784184
806.32380767799998011, -0.00118161, -0.00273374, -0.000886913, -0.0528141, 0.215274, 0.0779116
806.35712404499997774, -0.00118096, -0.00273471, -0.0008852, -0.0539411, 0.215855, 0.0848051
806.3904403450000018, -0.00118193, -0.00273488, -0.000883251, -0.054572, 0.216061, 0.0854124
806.42375668299996505, -0.00118254, -0.00273524, -0.000883069, -0.0579114, 0.212368, 0.0842581
806.4572230449999779, -0.00118191, -0.00273592, -0.00088459, -0.0572328, 0.20955, 0.0853323
806.49053931599996758, -0.00118201, -0.00273563, -0.000885087, -0.0563193, 0.20922, 0.0900223
806.52385742100000243, -0.00118232, -0.00273674, -0.000883556, -0.0520592, 0.208566, 0.0897113
806.55717204400002629, -0.00118243, -0.00273702, -0.00088321, -0.0525431, 0.208806, 0.0894125
806.59048834899999747, -0.00118297, -0.00273632, -0.000883394, -0.0549857, 0.206652, 0.0904968
806.62380468300000302, -0.00118315, -0.0027365, -0.000882182, -0.0548372, 0.204882, 0.0935519
806.65712101099995834, -0.001183, -0.0027354, -0.000882226, -0.0574449, 0.206136, 0.0952291
806.69043734900003528, -0.00118285, -0.00273483, -0.000882345, -0.057831, 0.20651, 0.0961943
806.7237537109999721, -0.00118292, -0.00273445, -0.000882717, -0.0579385, 0.205744, 0.0968542
806.75707004399998823, -0.00118337, -0.0027343, -0.000882774, -0.0597034, 0.205778, 0.0965909
806.79053634900003544, -0.00118354, -0.00273493, -0.000882167, -0.0604545, 0.205481, 0.099226
806.82385271099997226, -0.00118325, -0.00273662, -0.000881542, -0.0604529, 0.202468, 0.104494
806.85716904399998839, -0.0011835, -0.00273677, -0.000881942, -0.0601652, 0.201337, 0.103216
806.89048537799999394, -0.00118349, -0.00273655, -0.000881962, -0.0605786, 0.201493, 0.103284
806.92380171100001007, -0.00118374, -0.00273675, -0.000882463, -0.0597489, 0.201096, 0.101733
806.9571180440000262, -0.00118363, -0.00273695, -0.000882608, -0.059296, 0.200987, 0.101534
806.99043434400005026, -0.00118332, -0.00273628, -0.000882406, -0.0613875, 0.200036, 0.102535
807.02374407800004974, -0.00118345, -0.00273555, -0.00088357, -0.0608354, 0.196814, 0.101634
807.05704564300003767, -0.00118446, -0.0027347, -0.000884445, -0.055665, 0.195552, 0.0913072
807.09034775400004946, -0.00118491, -0.00273438, -0.000884335, -0.055602, 0.194607, 0.0924907
807.12379970200004209, -0.00118517, -0.0027341, -0.000884304, -0.0532381, 0.193339, 0.0942601
807.15710183800001687, -0.00118507, -0.00273458, -0.000884326, -0.0525594, 0.195194, 0.0926146
807.19040387799998371, -0.001185, -0.00273129, -0.000885875, -0.0557643, 0.185894, 0.0919766
807.22370595699999285, -0.0011853, -0.0027323, -0.000886488, -0.0565766, 0.191183, 0.0949858
807.25700803100005487, -0.00118544, -0.00273227, -0.000886619, -0.0573921, 0.191381, 0.0954126
807.29031013300004815, -0.00118607, -0.00273133, -0.000887735, -0.0584078, 0.187435, 0.0974236
807.32361220699999649, -0.00118621, -0.00273048, -0.000888543, -0.058524, 0.180501, 0.0992428
807.35691425699997126, -0.00118631, -0.00272999, -0.000888423, -0.0580377, 0.175262, 0.0941303
807.39021632200001477, -0.00118633, -0.00273006, -0.000888706, -0.0563402, 0.177002, 0.0956308
807.42351842899995518, -0.0011869, -0.00273005, -0.000888618, -0.0547346, 0.174969, 0.0921822
807.45697041000005356, -0.00118707, -0.00273043, -0.000888349, -0.055075, 0.179333, 0.0886044
807.4902724840000019, -0.00118726, -0.00273069, -0.000889078, -0.0535893, 0.186537, 0.0887795
807.52357452499995816, -0.00118725, -0.00273079, -0.000888953, -0.0526642, 0.185507, 0.0835759
807.55687666100004662, -0.00118737, -0.00273078, -0.000889848, -0.0529567, 0.182383, 0.0892685
807.59017905400003201, -0.00118723, -0.0027298, -0.00089018, -0.0543342, 0.168992, 0.0878641
807.62348080900005698, -0.00118749, -0.00272986, -0.000890192, -0.0533107, 0.172866, 0.0874888
807.65678284900002382, -0.00118728, -0.00272981, -0.000890691, -0.0523049, 0.174297, 0.0961805
807.69008495599996422, -0.00118766, -0.00273062, -0.000891551, -0.0505614, 0.190223, 0.110087
807.72338699700003417, -0.00118807, -0.00273061, -0.000891446, -0.0507988, 0.192554, 0.109458
807.75668907600004331, -0.00118891, -0.00273017, -0.000890959, -0.0513892, 0.186793, 0.100394
807.7899911780000366, -0.00118927, -0.00272988, -0.000891327, -0.0506761, 0.185373, 0.106559
807.8234431550000636, -0.0011904, -0.00272931, -0.000889802, -0.0505548, 0.171803, 0.100941
807.856745262000004, -0.00119145, -0.00272987, -0.000888676, -0.052552, 0.17024, 0.0935268
807.89004733599995234, -0.00119162, -0.00272983, -0.000888587, -0.0517748, 0.166196, 0.0932308
807.92334941000001436, -0.00119219, -0.00272959, -0.000887793, -0.0513309, 0.152612, 0.0781871
807.95665148399996269, -0.00119268, -0.00272944, -0.000887059, -0.0509907, 0.151073, 0.0770555
807.98995355800002471, -0.00119266, -0.00272935, -0.000887649, -0.0510256, 0.155675, 0.0837855
808.02326184499997908, -0.00119282, -0.00272948, -0.000887972, -0.0509045, 0.16071, 0.0841281
808.05657861600002434, -0.00119314, -0.00272979, -0.000887405, -0.0527769, 0.157802, 0.0828239
808.0898949160000484, -0.00119348, -0.00272976, -0.000887678, -0.0520884, 0.164182, 0.0879279
808.12321125000005395, -0.00119351, -0.00272979, -0.000886552, -0.052291, 0.146861, 0.0853785
808.1565275880000172, -0.0011943, -0.0027293, -0.000887253, -0.0532777, 0.145669, 0.0833281
808.18999395000003005, -0.00119546, -0.00272942, -0.000886529, -0.0529195, 0.13853, 0.0735492
808.22331028300004618, -0.00119624, -0.00272936, -0.000886437, -0.0543138, 0.133306, 0.0644096
808.25662658800001736, -0.00119689, -0.00272901, -0.000887679, -0.0578569, 0.145602, 0.0593954
808.28994291599997268, -0.00119648, -0.00272899, -0.000887673, -0.0593577, 0.159676, 0.0681648
808.32325924999997824, -0.00119578, -0.00272966, -0.000885697, -0.0588717, 0.158949, 0.0583648
808.35657558800005518, -0.00119608, -0.00273027, -0.000885627, -0.0592013, 0.169872, 0.0552259
808.38989194999999199, -0.00119613, -0.00273042, -0.00088597, -0.0586648, 0.177894, 0.0537017
808.42320825399997375, -0.00119598, -0.00273049, -0.000885193, -0.0598066, 0.187477, 0.0565254
808.45652461600002425, -0.00119655, -0.00273051, -0.00088527, -0.0610359, 0.205725, 0.0660278
808.48984095000002981, -0.00119755, -0.0027306, -0.000885919, -0.0579237, 0.209978, 0.069755
808.52315725000005386, -0.00119799, -0.00273091, -0.000886022, -0.0575564, 0.211031, 0.0690537
808.5566236109999636, -0.00119907, -0.00273077, -0.000885317, -0.0577409, 0.229839, 0.0699947
808.58993992099999559, -0.00120019, -0.00273081, -0.000884317, -0.0556714, 0.236552, 0.0844026
808.62325625400001172, -0.00120068, -0.00273117, -0.000884639, -0.0534263, 0.23759, 0.0890802
808.65657261600006223, -0.00120117, -0.00273118, -0.000884798, -0.0558965, 0.232023, 0.086764
808.68988894999995409, -0.00120148, -0.00273123, -0.000885086, -0.0592875, 0.230083, 0.0883236
808.72320528299997022, -0.00120218, -0.00273121, -0.000884614, -0.0563662, 0.243094, 0.095653
808.75652161599998635, -0.00120303, -0.0027305, -0.00088414, -0.0534123, 0.249948, 0.103848
808.78983794900000248, -0.00120344, -0.00273001, -0.000883967, -0.0566114, 0.253744, 0.104456
808.82315428300000804, -0.00120395, -0.00272972, -0.000884024, -0.0552903, 0.259013, 0.104868
808.85647058799997922, -0.00120502, -0.00272888, -0.000882551, -0.0568887, 0.256248, 0.102555
808.88993692099995769, -0.00120516, -0.00272832, -0.000881231, -0.0567126, 0.246214, 0.102242
808.92325325399997382, -0.00120474, -0.00272806, -0.000881785, -0.0550021, 0.249676, 0.100253
808.95656958799997938, -0.00120347, -0.00272835, -0.000883729, -0.055174, 0.252395, 0.0982889
808.98988594900004045, -0.00120288, -0.00272828, -0.000885021, -0.0540648, 0.24919, 0.1043
809.02320225400001164, -0.00120254, -0.0027291, -0.00088716, -0.0517614, 0.250602, 0.110555
809.05651858800001719, -0.00120284, -0.00272908, -0.000887737, -0.0548252, 0.250551, 0.110963
809.08983494899996458, -0.00120292, -0.00272949, -0.000887496, -0.0547164, 0.25881, 0.106562
809.12315128299997014, -0.00120332, -0.00273055, -0.000886516, -0.0511679, 0.261197, 0.110402
809.15646761599998626, -0.00120339, -0.00273069, -0.000884804, -0.0516621, 0.254711, 0.116256
809.18978391600001032, -0.00120334, -0.00273084, -0.000885752, -0.0511113, 0.269052, 0.107458
809.22325025400004961, -0.00120036, -0.00273391, -0.000880606, -0.0517861, 0.273168, 0.106188
809.25656658800005516, -0.00119904, -0.00273485, -0.000882161, -0.0538666, 0.264691, 0.107218
809.28988291600001048, -0.00119817, -0.00273468, -0.000884239, -0.0548849, 0.267437, 0.104906
809.32319925399997373, -0.00119767, -0.00273449, -0.000886309, -0.0531763, 0.27174, 0.10618
809.35651561600002424, -0.00119623, -0.00273407, -0.000888835, -0.0527373, 0.267839, 0.109135
809.3898319160000483, -0.00119557, -0.00273538, -0.000890135, -0.0530005, 0.267613, 0.106438
809.42314825400001155, -0.00119606, -0.00273671, -0.000888872, -0.0535163, 0.271866, 0.0987768
809.45646461600006205, -0.00119946, -0.00273342, -0.00088746, -0.0531732, 0.278212, 0.0910037
809.48978092100003323, -0.00119973, -0.00273273, -0.000886435, -0.0546211, 0.281022, 0.0864534
809.52309747799995421, -0.00119967, -0.00273266, -0.000886134, -0.0566227, 0.280537, 0.0863588
809.5564135869999518, -0.00119991, -0.00273251, -0.000886877, -0.0584554, 0.27764, 0.0979405
809.58987994899996465, -0.00119986, -0.00273187, -0.000888285, -0.0592955, 0.273852, 0.0994437
809.62319628299997021, -0.00120018, -0.00273211, -0.000888825, -0.0586708, 0.278938, 0.106675
809.65651258699995196, -0.00120003, -0.00273161, -0.000888745, -0.0572642, 0.277894, 0.10162
809.68982891600001039, -0.00119995, -0.00273159, -0.000888776, -0.0548243, 0.27882, 0.103214
809.72314522099998158, -0.00119917, -0.00273175, -0.000888199, -0.0540901, 0.28006, 0.102878
809.75646159200005059, -0.00119864, -0.00273184, -0.000887545, -0.0544002, 0.279566, 0.102029
809.78977792099999533, -0.00119806, -0.00273176, -0.00088772, -0.0556068, 0.274415, 0.101725
809.82309428300004583, -0.00119785, -0.00273206, -0.000887733, -0.0551069, 0.276167, 0.108079
809.85641058700002759, -0.00119723, -0.00273199, -0.000888258, -0.0554514, 0.271344, 0.10905
809.88972694899996441, -0.00119736, -0.00273163, -0.000888349, -0.0564392, 0.269294, 0.108531
809.92319322100001955, -0.00119737, -0.00273195, -0.000888101, -0.0549681, 0.273284, 0.108281
809.95650958700002775, -0.00119726, -0.00273232, -0.000888409, -0.0531343, 0.272819, 0.112263
809.98982594899996457, -0.00119675, -0.00273085, -0.000888921, -0.0533301, 0.266828, 0.101981
810.02314224500003093, -0.00119661, -0.00273104, -0.000888306, -0.0530957, 0.269135, 0.104582
810.05645861599998625, -0.00119637, -0.00273126, -0.000887603, -0.0536904, 0.272514, 0.108916
810.08977492099995743, -0.00119615, -0.00273156, -0.000887045, -0.0524146, 0.274712, 0.111622
810.12309124900002644, -0.00119704, -0.00273206, -0.00088604, -0.051117, 0.275269, 0.113701
810.15640758699998969, -0.00119693, -0.00273201, -0.000886027, -0.052466, 0.27508, 0.113301
810.18972394900004019, -0.00119652, -0.00273277, -0.000886428, -0.0536542, 0.272986, 0.1145
810.22304028300004575, -0.00119636, -0.00273294, -0.000886528, -0.0539055, 0.271416, 0.11382
810.2563565870000275, -0.00119621, -0.00273302, -0.000886864, -0.0534361, 0.272396, 0.114619
810.2898229209999954, -0.0011969, -0.0027315, -0.000887284, -0.0530218, 0.275731, 0.10293
810.32313924900006441, -0.00119643, -0.00273109, -0.000887437, -0.052817, 0.276132, 0.0999895
810.35645561600006204, -0.001196, -0.00273032, -0.000888148, -0.0509928, 0.275914, 0.0948529
810.38977194899996448, -0.00119578, -0.00272997, -0.000888775, -0.050351, 0.273879, 0.0916673
810.42308828299997003, -0.00119548, -0.00273018, -0.000888842, -0.0499682, 0.272047, 0.0935606
810.45640458699995179, -0.00119515, -0.00273036, -0.000888479, -0.0498394, 0.272476, 0.0960088
810.48972094900000229, -0.00119538, -0.00273059, -0.000887082, -0.0505328, 0.27115, 0.102217
810.52303725399997347, -0.00119541, -0.00273021, -0.000886777, -0.0505752, 0.272668, 0.101245
810.5563535869999896, -0.00119546, -0.00272956, -0.000886685, -0.0509349, 0.275712, 0.0996041
810.58966992099999516, -0.0011956, -0.00272907, -0.000887441, -0.054203, 0.274824, 0.0946963
810.62313625399997363, -0.00119591, -0.00272918, -0.000889008, -0.0555572, 0.273839, 0.0904309
810.65645258699998976, -0.00119601, -0.00272967, -0.000888943, -0.0541603, 0.272809, 0.0912474
810.68976892099999532, -0.00119504, -0.00273022, -0.000888594, -0.0529668, 0.271545, 0.0973844
810.72308528300004582, -0.00119478, -0.00273036, -0.000888101, -0.0548619, 0.268177, 0.0997097
810.75640161600006195, -0.00119451, -0.0027301, -0.00088774, -0.0550402, 0.266778, 0.0990461
810.78971794899996439, -0.00119445, -0.00273012, -0.000888495, -0.0563962, 0.264, 0.0948559
810.82303424899998845, -0.00119409, -0.00273001, -0.000888926, -0.0555679, 0.262864, 0.0926836
810.856350582999994, -0.00119374, -0.00272906, -0.000887948, -0.055912, 0.269194, 0.0942892
810.88966694900000221, -0.00119375, -0.00272858, -0.000888869, -0.0578995, 0.269985, 0.0898445
810.92298324900002626, -0.00119359, -0.00272872, -0.000889333, -0.0576619, 0.267702, 0.0875498
810.95629955900005825, -0.0011933, -0.00272839, -0.00088971, -0.0552177, 0.269532, 0.0876668
810.98976594900000237, -0.00119303, -0.00272867, -0.000889965, -0.0559388, 0.266459, 0.0864501
811.02308224900002642, -0.0011923, -0.00272904, -0.000890077, -0.0566336, 0.264239, 0.0829475
811.05639862099997117, -0.00119157, -0.00272914, -0.000889754, -0.057491, 0.263513, 0.0839128
811.08971488700001373, -0.00119128, -0.00272929, -0.000888805, -0.0564958, 0.263632, 0.0888897
811.12303124900006424, -0.00119107, -0.00272997, -0.000888113, -0.0556193, 0.257109, 0.0912211
811.15634758199996668, -0.00119091, -0.00272923, -0.000887853, -0.0527041, 0.264231, 0.0967906
811.1896639489999643, -0.00119087, -0.00272889, -0.000886925, -0.0513342, 0.265608, 0.100239
811.22298028199998043, -0.00119072, -0.00273033, -0.000888199, -0.0588993, 0.257683, 0.0919004
811.25629661599998599, -0.00119003, -0.00273024, -0.00088801, -0.0574954, 0.259706, 0.0936839
811.28961294900000212, -0.00118959, -0.00272982, -0.000888168, -0.0557787, 0.262881, 0.0931299
811.32307924899998852, -0.0011886, -0.00272954, -0.00088825, -0.0596122, 0.268268, 0.0858212
811.35639558699995177, -0.00118809, -0.00272904, -0.000888295, -0.0605679, 0.272551, 0.0851529
811.38971194900000228, -0.00118778, -0.00272959, -0.000888909, -0.0619599, 0.269843, 0.0819991
811.42302825399997346, -0.00118833, -0.00272925, -0.000886554, -0.0605064, 0.270977, 0.0858013
811.45634461600002396, -0.00118834, -0.00272897, -0.000886501, -0.0606179, 0.267968, 0.0794095
811.48966095399998721, -0.00118839, -0.00272927, -0.000885621, -0.0603941, 0.26576, 0.0738123
811.52297725400001127, -0.00118853, -0.00272907, -0.000884852, -0.05881, 0.264691, 0.0709978
811.55629415900000367, -0.00118961, -0.00272844, -0.000884049, -0.0603027, 0.268821, 0.0665759
811.58961040099995898, -0.00119027, -0.00272899, -0.000883923, -0.0623361, 0.269023, 0.0638492
811.62292625400004908, -0.0011903, -0.00272937, -0.000882892, -0.0610826, 0.263748, 0.0673877
811.6562426159999859, -0.00119011, -0.00272955, -0.000878937, -0.0525197, 0.260281, 0.0935897
811.68970894899996438, -0.00118966, -0.00272952, -0.000879523, -0.0524863, 0.258502, 0.0855821
811.72302528199998051, -0.0011895, -0.00272965, -0.000881001, -0.053595, 0.256052, 0.0833468
811.75634158699995169, -0.00118945, -0.00272848, -0.000881582, -0.0541484, 0.251595, 0.0814628
811.78965943499997593, -0.00118913, -0.00272842, -0.000881256, -0.0536164, 0.249616, 0.0837181
811.82297428200001832, -0.00119012, -0.00272838, -0.000880389, -0.0537561, 0.247987, 0.0837681
811.85629055900005824, -0.00119157, -0.00273024, -0.000879214, -0.0543897, 0.244286, 0.0838109
811.88960694900004, -0.00121626, -0.00272589, -0.000878146, -0.0535921, 0.243344, 0.0899064
811.92292325400001118, -0.00121811, -0.00272743, -0.000877505, -0.0537923, 0.240247, 0.0931814
811.95623967799997445, -0.00122043, -0.00272957, -0.000877305, -0.0529953, 0.238197, 0.10194
811.98955594899996413, -0.00122337, -0.00273318, -0.000877682, -0.0509987, 0.23692, 0.10919
812.02302224900006422, -0.00122493, -0.00273605, -0.000879399, -0.0481208, 0.234211, 0.114115
812.05633862499996667, -0.00122562, -0.00273804, -0.000879705, -0.0489862, 0.228043, 0.115443
812.08965494899996429, -0.00122499, -0.00274125, -0.000879968, -0.0476037, 0.226456, 0.11917
812.12297124899998835, -0.00122432, -0.00274258, -0.000879914, -0.0445107, 0.232782, 0.124351
812.15628758200000448, -0.0012242, -0.00274281, -0.000879357, -0.04432, 0.233508, 0.122613
812.1896039490000021, -0.00122446, -0.00274371, -0.000880348, -0.0451025, 0.229228, 0.122251
812.22292028200001823, -0.00122473, -0.00274371, -0.000880124, -0.0441274, 0.233645, 0.125874
812.25623661600002379, -0.0012252, -0.00274474, -0.000879167, -0.0441178, 0.230222, 0.126612
812.28955294900003992, -0.00122583, -0.00274516, -0.000878258, -0.0466255, 0.226967, 0.124162
812.32286928200005605, -0.00122552, -0.0027455, -0.0008789, -0.0472058, 0.225482, 0.12644
812.35633558200004245, -0.00122556, -0.00274633, -0.00087923, -0.0441558, 0.223298, 0.131906
812.38965188700001363, -0.00122528, -0.00274694, -0.000879107, -0.0430211, 0.218219, 0.137781
812.42296828200005621, -0.00122452, -0.00274712, -0.000879201, -0.0415136, 0.215154, 0.135595
812.45628461600006176, -0.00122457, -0.00274702, -0.000879842, -0.0410229, 0.214874, 0.131936
812.48960092000004352, -0.00122457, -0.00274766, -0.000880194, -0.041185, 0.2101, 0.132868
812.52291728199998033, -0.00122538, -0.00274684, -0.000880182, -0.0433081, 0.211967, 0.12804
812.55623358200000439, -0.00122565, -0.00274666, -0.000880623, -0.0439123, 0.212273, 0.124392
812.58954994900000202, -0.00122313, -0.00274826, -0.000877259, -0.039191, 0.219532, 0.134415
812.62286631999995734, -0.00122316, -0.00274813, -0.000877368, -0.0392904, 0.220141, 0.132093
812.65618258699998933, -0.00122361, -0.00274796, -0.000880236, -0.0450124, 0.214455, 0.123672
812.68949894900003983, -0.00122397, -0.00274761, -0.000880015, -0.0463163, 0.213233, 0.120177
812.72296528200001831, -0.00122494, -0.00274715, -0.000877794, -0.0501458, 0.211158, 0.118356
812.75628161600002386, -0.00122502, -0.00274693, -0.000877497, -0.050931, 0.211942, 0.117214
812.78959794900003999, -0.00122528, -0.00274744, -0.00087632, -0.0513716, 0.214263, 0.11681
812.82291425400001117, -0.00122518, -0.00274751, -0.000875604, -0.0504099, 0.213894, 0.117386
812.85623061600006167, -0.00122527, -0.00274728, -0.000875492, -0.0490445, 0.215535, 0.116894
812.88954691599997204, -0.00122519, -0.00274747, -0.000875596, -0.0485814, 0.215804, 0.120463
812.92286325400004898, -0.0012252, -0.00274735, -0.000874747, -0.0473723, 0.215388, 0.119987
812.9561796159999858, -0.00122538, -0.00274789, -0.000874321, -0.0461065, 0.217129, 0.122957
812.98949589200003629, -0.00122548, -0.00274811, -0.000874243, -0.0463081, 0.219347, 0.123132
813.02281225399997311, -0.00122605, -0.00274856, -0.000874906, -0.0457176, 0.219331, 0.124587
813.05627858200000446, -0.00122639, -0.00274847, -0.000875729, -0.0463581, 0.218515, 0.125805
813.08959491999996771, -0.00122714, -0.00274829, -0.000875294, -0.0474565, 0.216605, 0.124188
813.12291125399997327, -0.00122728, -0.00274865, -0.000875468, -0.045656, 0.214974, 0.126227
813.15622758200004228, -0.00122782, -0.00274899, -0.000876032, -0.0495465, 0.210428, 0.12638
813.18954392000000553, -0.00122767, -0.00274916, -0.000876242, -0.0500972, 0.211177, 0.121124
813.22286022000002959, -0.00122778, -0.0027487, -0.000875917, -0.0503306, 0.210576, 0.117219
813.25617658700002721, -0.00122843, -0.00274849, -0.000875545, -0.0524354, 0.212602, 0.117464
813.28949370099996941, -0.00122823, -0.00274849, -0.000875233, -0.0553425, 0.214972, 0.116314
813.32280928199998016, -0.00122791, -0.0027475, -0.000874588, -0.055504, 0.214806, 0.111661
813.35612561499999629, -0.0012282, -0.00274676, -0.000876372, -0.0540074, 0.215214, 0.110646
813.38944191999996747, -0.0012274, -0.00274748, -0.000877942, -0.0543071, 0.217196, 0.111585
813.42290825400004906, -0.00122608, -0.00274731, -0.000879804, -0.0534366, 0.215061, 0.111837
813.45622461499999645, -0.00122509, -0.00274725, -0.000881373, -0.0504201, 0.21803, 0.110646
813.489540949000002, -0.00122498, -0.00274681, -0.000881631, -0.0501263, 0.217905, 0.108569
813.52285728200001813, -0.00122448, -0.00274534, -0.000882012, -0.0483248, 0.217532, 0.0981978
813.55617361500003426, -0.00122369, -0.00274427, -0.000882819, -0.0470014, 0.215051, 0.094191
813.58948994900003981, -0.00122261, -0.00274334, -0.000883777, -0.047397, 0.214365, 0.0924025
813.62280624900006387, -0.00122032, -0.00274158, -0.000885628, -0.0482891, 0.217901, 0.0930562
813.65612261499995839, -0.00122001, -0.00274116, -0.000885599, -0.0499173, 0.21715, 0.0926151
813.68943891499998244, -0.00122016, -0.00274049, -0.000886012, -0.0487285, 0.215177, 0.0903051
813.72275528199998007, -0.00122021, -0.00273976, -0.00088655, -0.0486007, 0.213338, 0.0879379
813.75622158700002728, -0.00122025, -0.00273894, -0.000887239, -0.0495837, 0.210674, 0.0855525
813.78953788700005134, -0.00122034, -0.00273942, -0.000887955, -0.0490793, 0.209074, 0.0862905
813.82285428199998023, -0.00122031, -0.00273943, -0.000888118, -0.0485779, 0.207812, 0.0857233
813.85617061499999636, -0.00122023, -0.00273936, -0.000888109, -0.0495497, 0.207511, 0.0854547
813.88948694900000191, -0.00121935, -0.00273997, -0.000888107, -0.0521735, 0.208591, 0.0865571
813.92280328200001804, -0.00121878, -0.00274138, -0.000886451, -0.0533607, 0.210811, 0.0908259
813.95611961500003417, -0.00121865, -0.00274102, -0.000886837, -0.0546325, 0.212298, 0.089243
813.98943592000000535, -0.00121801, -0.00274131, -0.000887951, -0.0576258, 0.21097, 0.087156
814.02275225300002148, -0.00121768, -0.00274175, -0.000888016, -0.0577472, 0.208481, 0.0886456
814.0560686149999583, -0.00121757, -0.00274164, -0.000888609, -0.0571325, 0.206701, 0.0896379
814.08938506300000881, -0.00121746, -0.00274196, -0.000888742, -0.056592, 0.205463, 0.0898316
814.12285124900006394, -0.00121757, -0.00274185, -0.000889017, -0.0573058, 0.204402, 0.0920207
814.15616761499995846, -0.00121751, -0.00274285, -0.000888717, -0.0609324, 0.199356, 0.0974127
814.18948394899996401, -0.0012165, -0.00274059, -0.000891283, -0.063444, 0.209583, 0.0864193
814.22280028199998014, -0.00121656, -0.00274082, -0.000890955, -0.0621782, 0.209086, 0.0862034
814.25611661499999627, -0.00121646, -0.00274105, -0.000890948, -0.0610357, 0.208104, 0.0863158
814.28943294900000183, -0.00121626, -0.0027412, -0.000891004, -0.0602539, 0.207392, 0.0870036
814.32274925299998358, -0.0012162, -0.00274166, -0.000890562, -0.0583679, 0.204908, 0.0888264
814.35606561500003409, -0.00121638, -0.00274187, -0.000890078, -0.0562471, 0.201786, 0.0872404
814.38938191500005814, -0.0012167, -0.00274237, -0.000888749, -0.0551148, 0.197296, 0.0866689
814.42269827200004784, -0.00121724, -0.00274285, -0.000888677, -0.0550246, 0.191325, 0.0851241
814.45616458200004217, -0.00121742, -0.00274298, -0.000888615, -0.0550489, 0.188968, 0.0828908
814.48948092000000543, -0.00121821, -0.00274325, -0.000888236, -0.055181, 0.18743, 0.0827016
814.52279728200005593, -0.00121865, -0.0027434, -0.000886959, -0.0547556, 0.184985, 0.085421
814.55611361499995837, -0.00121889, -0.00274399, -0.000886858, -0.0553396, 0.183895, 0.0854052
814.58942991499998243, -0.00121956, -0.00274416, -0.000886363, -0.0556028, 0.185296, 0.0851495
814.62274628700004087, -0.00122134, -0.00274556, -0.000884128, -0.0558602, 0.188138, 0.0852895
814.65606255800003055, -0.00122342, -0.00274666, -0.000882514, -0.0560042, 0.191824, 0.0843425
814.68937891999996737, -0.00122358, -0.00274715, -0.000882342, -0.0545772, 0.191011, 0.0855958
814.7226952490000258, -0.00122369, -0.00274722, -0.000881927, -0.0545505, 0.190838, 0.0871298
814.756011615000034, -0.00122368, -0.00274728, -0.000881746, -0.0533928, 0.192119, 0.0869241
814.78932791500005806, -0.00122364, -0.00274768, -0.000881212, -0.0519215, 0.192166, 0.0869627
814.82279428200001803, -0.00122424, -0.00274789, -0.00088062, -0.0521088, 0.191155, 0.0870605
814.85611061500003416, -0.00122427, -0.00274751, -0.000880567, -0.0518921, 0.19255, 0.0858546
814.88942694900003971, -0.00122454, -0.00274736, -0.000880521, -0.0515857, 0.191713, 0.0854398
814.92274325300002147, -0.00122478, -0.00274725, -0.000880816, -0.0530129, 0.190988, 0.0859238
814.95605958199996621, -0.0012248, -0.00274743, -0.000880568, -0.052533, 0.191182, 0.0862713
814.98937592000004315, -0.00122514, -0.00274562, -0.000881533, -0.053535, 0.190514, 0.0824238
815.0226922489999879, -0.0012259, -0.00274455, -0.000881823, -0.0514504, 0.190132, 0.0807821
815.05600858200000403, -0.00122601, -0.00274479, -0.000881622, -0.0509529, 0.191009, 0.0813228
815.08932488699997521, -0.00122607, -0.00274478, -0.000882405, -0.0563108, 0.192299, 0.0820738
815.12264125299998341, -0.00122635, -0.0027452, -0.000882914, -0.0558831, 0.191731, 0.0846899
815.15610761499999626, -0.00122664, -0.00274578, -0.000882483, -0.0558219, 0.192386, 0.0860438
815.18942391500002032, -0.00122775, -0.00274588, -0.000882423, -0.0546213, 0.191404, 0.0868581
815.22274028200001794, -0.00122809, -0.00274588, -0.000882662, -0.0545862, 0.191152, 0.0874073
815.256056582000042, -0.00122877, -0.00274529, -0.000882597, -0.0566475, 0.191104, 0.0871935
815.28937291500005813, -0.00122892, -0.00274485, -0.000881785, -0.0576794, 0.191066, 0.0837952
815.32268924900006368, -0.00122919, -0.00274478, -0.000881368, -0.0581483, 0.192812, 0.0844271
815.35600558199996613, -0.00122903, -0.00274491, -0.000881691, -0.058965, 0.193162, 0.0837896
815.38932237200003783, -0.00122908, -0.00274473, -0.000882324, -0.0605081, 0.192806, 0.0836336
815.42263824899998781, -0.00122907, -0.00274481, -0.000882067, -0.0594232, 0.194028, 0.0829084
815.45595458200000394, -0.00122934, -0.0027443, -0.000881126, -0.0577543, 0.191362, 0.0825431
815.48942092000004322, -0.00122966, -0.00274417, -0.000879911, -0.0549827, 0.190987, 0.0803688
815.5227372199999536, -0.00122984, -0.00274364, -0.00087974, -0.054894, 0.18986, 0.0822464
815.55605361499999617, -0.00122995, -0.00274361, -0.000879564, -0.0551323, 0.190535, 0.0810847
815.58936991500002023, -0.00122989, -0.00274395, -0.000879672, -0.0531336, 0.191794, 0.0790435
815.62268628200001785, -0.0012302, -0.00274388, -0.000878713, -0.0534569, 0.190692, 0.0777513
815.65600261500003398, -0.00123043, -0.00274266, -0.000876908, -0.0559223, 0.186241, 0.0812463
815.68931891500005804, -0.00123085, -0.00274278, -0.000875909, -0.0545602, 0.186986, 0.0806408
815.72263524799996048, -0.00123103, -0.00274261, -0.000875477, -0.0562903, 0.185589, 0.0817763
815.75595158700002685, -0.00123108, -0.00274198, -0.000875742, -0.0554028, 0.183965, 0.0849326
815.78926792000004298, -0.00123136, -0.00274225, -0.000876337, -0.0538415, 0.188083, 0.0836208
815.82258428199997979, -0.00123124, -0.00274294, -0.000877309, -0.045704, 0.193255, 0.08273
815.85605055799999263, -0.00123106, -0.00274302, -0.000876496, -0.0458327, 0.196033, 0.0789342
815.8893669479999744, -0.00123083, -0.00274291, -0.000876691, -0.0459907, 0.193847, 0.0797697
815.92268328199997995, -0.00123149, -0.00274211, -0.000876765, -0.0544699, 0.188177, 0.0859904
815.95599958700006482, -0.0012312, -0.00274332, -0.000875889, -0.056552, 0.19309, 0.0816455
815.98931594800001221, -0.00123088, -0.00274329, -0.000876362, -0.0511751, 0.198135, 0.0806171
816.02263228200001777, -0.00123057, -0.00274386, -0.000877028, -0.0483186, 0.201092, 0.0820039
816.05594858200004182, -0.00122939, -0.00274492, -0.000876226, -0.0486331, 0.20648, 0.0764707
816.08926492000000508, -0.00122838, -0.00274518, -0.00087703, -0.0493993, 0.207393, 0.0750789
816.12258128200005558, -0.0012292, -0.00274505, -0.000876726, -0.049723, 0.205396, 0.078144
816.15589758600003734, -0.00122958, -0.00274468, -0.000875566, -0.0494388, 0.202126, 0.0781066
816.18936391500005811, -0.00122939, -0.002744, -0.000874307, -0.0516305, 0.200708, 0.0730829
816.22268031999999494, -0.00122923, -0.00274329, -0.000875087, -0.0531345, 0.196485, 0.0727562
816.25599661499995818, -0.00122919, -0.00274326, -0.000875797, -0.0520495, 0.196353, 0.074634
816.28931292000004305, -0.00122897, -0.00274406, -0.00087595, -0.051462, 0.201208, 0.072762
816.32263374800004385, -0.00122869, -0.00274431, -0.000876735, -0.0503667, 0.201542, 0.0747284
816.35594558200000392, -0.00122863, -0.00274414, -0.000876572, -0.0500534, 0.200644, 0.0738306
816.38926194800001213, -0.00122793, -0.00274522, -0.000875999, -0.0564042, 0.201647, 0.0735364
816.42257825299998331, -0.00122818, -0.00274579, -0.000876201, -0.0581635, 0.200365, 0.0734537
816.45589462899999944, -0.00122806, -0.00274519, -0.000876853, -0.0579063, 0.198025, 0.0729218
816.48921094800004994, -0.00122827, -0.00274507, -0.000875486, -0.0538108, 0.201923, 0.0731677
816.52252723900005549, -0.00122825, -0.00274549, -0.000875599, -0.0530299, 0.203502, 0.0753916
816.5559935859999996, -0.00122779, -0.00274633, -0.000873965, -0.0530061, 0.205238, 0.0786505
816.5893099480000501, -0.00122888, -0.00274645, -0.000870482, -0.0538088, 0.205708, 0.0778476
816.62262625300002128, -0.00122935, -0.00274725, -0.000869026, -0.0556072, 0.204624, 0.0776836
816.65594258199996602, -0.00122899, -0.00274705, -0.000872589, -0.0542592, 0.204935, 0.0802857
816.68925888600006147, -0.00122885, -0.00274757, -0.000874414, -0.0529118, 0.205969, 0.079703
816.72257525300005909, -0.00122886, -0.00274686, -0.000874704, -0.0519953, 0.205406, 0.0790261
816.75589161499999591, -0.00122978, -0.00274837, -0.000875467, -0.0508657, 0.206074, 0.079577
816.78920791500001997, -0.00123071, -0.00274817, -0.000874245, -0.0498806, 0.207728, 0.0807529
816.82252425299998322, -0.00123082, -0.00274802, -0.000874653, -0.0523924, 0.206037, 0.0776575
816.85584058599999935, -0.00123017, -0.00274757, -0.000875453, -0.0527652, 0.204376, 0.0756886
816.8893069480000122, -0.00122972, -0.00274751, -0.000876167, -0.0517709, 0.203691, 0.075461
816.92262328200001775, -0.00123012, -0.00274783, -0.000875678, -0.0499422, 0.204957, 0.078554
816.95593958200004181, -0.00122941, -0.00274828, -0.000876342, -0.0541512, 0.201967, 0.0731676
816.98925592000000506, -0.00122885, -0.00274769, -0.00087842, -0.0537067, 0.201217, 0.0713395
817.02257225300002119, -0.0012282, -0.00274734, -0.000878606, -0.051323, 0.202122, 0.0743921
817.05588855300004525, -0.00122751, -0.00274695, -0.000879175, -0.051739, 0.201206, 0.0736056
817.08920492000004288, -0.00122677, -0.00274694, -0.00088039, -0.0518859, 0.200765, 0.0723431
817.122521253000059, -0.00122623, -0.00274709, -0.000880258, -0.0538919, 0.1998, 0.0710574
817.15583758200000375, -0.00122586, -0.00274756, -0.000880948, -0.0534507, 0.19893, 0.0702349
817.18915391500001988, -0.00122569, -0.00274728, -0.000881411, -0.0513649, 0.199445, 0.0723878
817.22247025299998313, -0.00122551, -0.00274713, -0.000881632, -0.0495179, 0.20047, 0.0754521
817.25593658200000391, -0.00122513, -0.00274758, -0.000881252, -0.0484244, 0.200597, 0.0787633
817.28925294800001211, -0.00122448, -0.0027483, -0.000881423, -0.0485531, 0.198395, 0.0804336
817.32256925299998329, -0.00122418, -0.0027482, -0.000881911, -0.04738, 0.199171, 0.0819385
817.35588561500003379, -0.00122372, -0.0027474, -0.000882667, -0.0468787, 0.202241, 0.0811029
817.38920192000000498, -0.00122339, -0.00274793, -0.000882763, -0.0443908, 0.200651, 0.0830039
817.42251828200005548, -0.00122339, -0.00274773, -0.000882732, -0.0447259, 0.201009, 0.0827373
817.45583455799999228, -0.00122313, -0.00274748, -0.00088178, -0.05166, 0.198501, 0.0753968
817.48915094799997405, -0.00122246, -0.00274871, -0.000881306, -0.0504454, 0.194872, 0.0764223
817.52246725300005892, -0.00122158, -0.00274774, -0.000881541, -0.0503148, 0.199201, 0.0758698
817.55578358200000366, -0.00122109, -0.00274688, -0.00088219, -0.0485038, 0.202778, 0.0755846
817.58924994799997421, -0.00122041, -0.00274587, -0.000882166, -0.0472348, 0.206987, 0.0780443
817.62256625300005908, -0.00122038, -0.00274636, -0.000881314, -0.0479249, 0.203053, 0.0806153
817.65588258200000382, -0.00122031, -0.00274622, -0.000881136, -0.0495201, 0.198131, 0.080461
817.68919891500001995, -0.00121948, -0.00274658, -0.00088169, -0.0496339, 0.198103, 0.0804745
817.7225152529999832, -0.00121945, -0.00274583, -0.00088241, -0.0465077, 0.204899, 0.0886095
817.75583158599999933, -0.00121933, -0.00274565, -0.000882808, -0.0458662, 0.206424, 0.0903649
817.78914794800004984, -0.00121926, -0.00274542, -0.000882898, -0.044257, 0.209199, 0.0958465
817.82246428099995228, -0.00121901, -0.00274543, -0.000882684, -0.0430619, 0.20679, 0.100425
817.85578061499995783, -0.00121809, -0.00274462, -0.000883805, -0.0410633, 0.209003, 0.103111
817.88909692900006121, -0.00121782, -0.00274391, -0.000884663, -0.0427458, 0.21149, 0.0991533
817.92241328099999009, -0.00121779, -0.00274415, -0.000884924, -0.0436277, 0.209416, 0.0956552
817.9558795809999765, -0.00121704, -0.00274523, -0.000885756, -0.0435166, 0.200445, 0.0956686
817.98919591499998205, -0.00121674, -0.00274418, -0.000886878, -0.0450029, 0.208038, 0.0946855
818.02251224799999818, -0.00121617, -0.00274361, -0.000887806, -0.0441859, 0.208757, 0.0948411
818.05582858100001431, -0.0012156, -0.00274351, -0.000888883, -0.0433596, 0.206219, 0.0924399
818.08914491500001986, -0.00121497, -0.00274245, -0.000890123, -0.0443732, 0.20932, 0.0888015
818.12246128100002807, -0.00121475, -0.00274256, -0.0008903, -0.0446816, 0.208463, 0.0884346
818.15577758100005212, -0.00121451, -0.00274295, -0.000889926, -0.0423543, 0.207981, 0.0887739
818.18909391500005768, -0.00121423, -0.00274272, -0.000890273, -0.0454515, 0.211387, 0.0858055
818.22241028099995219, -0.00121377, -0.00274312, -0.000889767, -0.0477135, 0.214945, 0.0897613
818.25572661499995775, -0.00121278, -0.00274359, -0.000889922, -0.0485352, 0.217186, 0.090245
818.28919294800004991, -0.00121082, -0.00274544, -0.000890317, -0.047876, 0.217113, 0.0898674
818.32250925300002109, -0.00120888, -0.00274762, -0.000891054, -0.0463132, 0.218345, 0.0896008
818.35582561499995791, -0.00120802, -0.00274859, -0.00089119, -0.0457833, 0.215791, 0.0904882
818.38914191900005335, -0.00120744, -0.00274903, -0.000891182, -0.0459722, 0.214557, 0.0920753
818.42245828099999017, -0.00120563, -0.00274988, -0.000892372, -0.0448416, 0.218062, 0.0863239
818.45577458100001422, -0.00120548, -0.00274902, -0.000893519, -0.0456787, 0.224044, 0.0838231
818.48909094800001185, -0.00120511, -0.00274912, -0.000893665, -0.0459496, 0.220725, 0.0886751
818.52240728100002798, -0.00120467, -0.00274986, -0.000893416, -0.0445464, 0.216456, 0.0863813
818.55572361500003353, -0.0012034, -0.00275077, -0.000894211, -0.0427142, 0.221003, 0.0767617
818.58903994800004966, -0.00120318, -0.00275162, -0.000894225, -0.0422638, 0.21669, 0.073355
818.62250621900000169, -0.00120291, -0.00275208, -0.000894504, -0.0423404, 0.221449, 0.070915
818.6558225810000522, -0.00120279, -0.00275188, -0.000894702, -0.0417629, 0.222198, 0.0728911
818.68913894800004982, -0.00120252, -0.002752, -0.000894718, -0.0423399, 0.216836, 0.0792578
818.72245522900004744, -0.00120221, -0.00275118, -0.000894371, -0.0415266, 0.213047, 0.0909923
818.7557744340000454, -0.00120146, -0.00275154, -0.000896885, -0.0428705, 0.21949, 0.0804653
818.78908791900005326, -0.00120188, -0.00275106, -0.000896541, -0.0409075, 0.21716, 0.0928612
818.82240428099999008, -0.0012018, -0.0027508, -0.000896491, -0.0412528, 0.215832, 0.0946043
818.85572058100001414, -0.00120159, -0.00275142, -0.000896177, -0.0413016, 0.214758, 0.100139
818.88903691899997739, -0.00120089, -0.00275152, -0.000897174, -0.0407616, 0.216801, 0.0980811
818.92235328100002789, -0.00120065, -0.00275154, -0.000897708, -0.0403108, 0.218481, 0.0964801
818.95566958599999907, -0.00120059, -0.00275173, -0.000897662, -0.0398495, 0.217913, 0.0973306
818.98913591899997755, -0.00120027, -0.00275277, -0.00089751, -0.0402815, 0.21536, 0.0971119
819.0224522529999831, -0.00120013, -0.00275315, -0.000897949, -0.0407668, 0.214248, 0.0952609
819.05576858599999923, -0.00120012, -0.00275266, -0.000898071, -0.040407, 0.216253, 0.102017
819.08908491900001536, -0.00120083, -0.00275136, -0.000896975, -0.0403634, 0.220344, 0.11254
819.12240125300002092, -0.00120066, -0.00275159, -0.000896715, -0.0415889, 0.218566, 0.106855
819.15571761499995773, -0.00120046, -0.00275122, -0.000896153, -0.0415181, 0.219453, 0.111516
819.18903394799997386, -0.0012008, -0.00275055, -0.000895847, -0.0413024, 0.219078, 0.119303
819.22235028099998999, -0.00120074, -0.00275021, -0.000895606, -0.0417445, 0.220449, 0.123877
819.25566658100001405, -0.00120088, -0.00274962, -0.000895585, -0.042682, 0.225459, 0.126332
819.28898294800001167, -0.00120139, -0.00274887, -0.000895155, -0.0435644, 0.224274, 0.131334
819.32244925300005889, -0.00120192, -0.00274834, -0.00089482, -0.044303, 0.222012, 0.136825
819.35576558100001421, -0.0012028, -0.00274707, -0.000893951, -0.0425344, 0.214808, 0.152965
819.38908191500001976, -0.00120303, -0.00274705, -0.000893999, -0.0423631, 0.214799, 0.153723
819.42239828100002796, -0.00120323, -0.00274585, -0.000894117, -0.0395684, 0.210343, 0.147405
819.45571458599999914, -0.00120267, -0.00274536, -0.000894027, -0.0368948, 0.208217, 0.145377
819.48903091900001527, -0.00120277, -0.0027453, -0.000894215, -0.0372789, 0.209796, 0.143164
819.52234728099995209, -0.0012034, -0.00274476, -0.000894343, -0.0370535, 0.210536, 0.146133
819.55566361499995764, -0.00120416, -0.00274402, -0.000894451, -0.0361119, 0.211312, 0.148581
819.58897989100000814, -0.00120462, -0.00274477, -0.000887708, -0.0357049, 0.20974, 0.142784
819.62229625300005864, -0.00120539, -0.00274172, -0.000889244, -0.0356757, 0.21027, 0.147778
819.65561258599996108, -0.0012059, -0.00273982, -0.000890664, -0.0349598, 0.209195, 0.153828
819.68907894799997393, -0.0012039, -0.00273982, -0.000894127, -0.0356849, 0.207506, 0.15312
819.72239528099999006, -0.00120366, -0.0027392, -0.000895607, -0.0357197, 0.205808, 0.156002
819.75571161499999562, -0.0012052, -0.0027394, -0.000895822, -0.0346662, 0.204902, 0.156445
819.78902791500001968, -0.00120707, -0.0027395, -0.000895675, -0.0341486, 0.204961, 0.159764
819.82234428100002788, -0.00120894, -0.0027381, -0.000896538, -0.0362748, 0.204022, 0.155548
819.85566061500003343, -0.00120882, -0.00273752, -0.000897472, -0.0361528, 0.19831, 0.15422
819.88897691900001519, -0.00120874, -0.00273881, -0.000897788, -0.0345971, 0.19856, 0.154834
819.922293280999952, -0.00120871, -0.0027395, -0.000897164, -0.0328243, 0.201086, 0.157312
819.95560961399996813, -0.00121074, -0.00273964, -0.000896009, -0.0349808, 0.197848, 0.156879
819.988925919000053, -0.00121187, -0.00273965, -0.000895539, -0.0344345, 0.196051, 0.158658
820.02239224799996009, -0.00121129, -0.00273935, -0.00089622, -0.0336082, 0.192212, 0.145585
820.05570858099997622, -0.0012124, -0.00273894, -0.000896682, -0.032088, 0.19464, 0.148936
820.08902491399999235, -0.00121272, -0.00273928, -0.00089678, -0.031012, 0.195319, 0.153528
820.1223412479999979, -0.00121372, -0.00273999, -0.000896973, -0.0281699, 0.195716, 0.15958
820.15565758100001403, -0.00121428, -0.00274025, -0.000896714, -0.0289602, 0.196486, 0.159161
820.18897391400003016, -0.00121433, -0.00274023, -0.000896774, -0.028994, 0.196283, 0.158765
820.22229024800003572, -0.00121484, -0.0027402, -0.000897177, -0.0290266, 0.197143, 0.155567
820.25560661400004392, -0.00121481, -0.00274008, -0.000898317, -0.0287305, 0.197348, 0.143336
820.28892294800004947, -0.00121454, -0.00273986, -0.000898087, -0.0301397, 0.196961, 0.146778
820.32223925300002065, -0.00121461, -0.00274027, -0.00089844, -0.0316942, 0.196579, 0.146777
820.35555558600003678, -0.00121448, -0.00274049, -0.000898213, -0.0323162, 0.196022, 0.149155
820.38902191399995445, -0.0012153, -0.00274106, -0.000897934, -0.0309992, 0.197421, 0.153492
820.42233828099995208, -0.00121355, -0.00274069, -0.000899564, -0.0323918, 0.195443, 0.1437
820.45565458600003694, -0.00121367, -0.0027407, -0.000899936, -0.0324103, 0.195194, 0.144331
820.48897094799997376, -0.00121371, -0.00274078, -0.00089982, -0.0313641, 0.194923, 0.148809
820.52228728099998989, -0.00121292, -0.00274111, -0.000900043, -0.0315238, 0.192295, 0.1465
820.55560361400000602, -0.00121312, -0.00274111, -0.000900217, -0.03266, 0.192149, 0.145433
820.58891989100004594, -0.00121328, -0.00274065, -0.000900275, -0.0314233, 0.192455, 0.143646
820.6222362810000277, -0.00121465, -0.00274015, -0.000900051, -0.0322065, 0.194729, 0.134226
820.65555258599999888, -0.00121513, -0.00274009, -0.000900231, -0.0341723, 0.195785, 0.130926
820.68886966700006269, -0.0012164, -0.00273982, -0.000901205, -0.0372922, 0.198045, 0.126234
820.72233525199999349, -0.00121703, -0.00273931, -0.000901907, -0.038396, 0.198355, 0.126229
820.75565165199998319, -0.00121778, -0.00273998, -0.000901282, -0.0369753, 0.2011, 0.128978
820.78896797599998081, -0.0012185, -0.00274013, -0.000900743, -0.0352727, 0.204175, 0.134246
820.82228424799995992, -0.00121945, -0.00274005, -0.00090056, -0.037417, 0.202244, 0.133654
820.85560061399996812, -0.00121973, -0.00273964, -0.000900813, -0.0365503, 0.206222, 0.135847
820.88891691399999218, -0.00121873, -0.00273885, -0.000899962, -0.0355171, 0.208782, 0.13872
820.9222332809999898, -0.00121876, -0.00273911, -0.000899515, -0.039926, 0.204326, 0.135444
820.95554958599996098, -0.00121872, -0.00273886, -0.000900156, -0.0392416, 0.205199, 0.136416
820.98886596199997712, -0.0012182, -0.00273857, -0.000899632, -0.0387948, 0.20623, 0.139376
821.02218225199999324, -0.00121818, -0.00273742, -0.000900173, -0.0389272, 0.205935, 0.138545
821.0554985859999988, -0.00121799, -0.00273573, -0.000901736, -0.0377142, 0.206504, 0.139479
821.08896494800001165, -0.00121776, -0.00273538, -0.000902903, -0.037037, 0.208483, 0.140033
821.12228128100002778, -0.00121765, -0.00273561, -0.000902759, -0.0347174, 0.211955, 0.141457
821.15559758599999896, -0.00121754, -0.00273555, -0.000903759, -0.0318378, 0.215716, 0.139942
821.18891391900001508, -0.00121717, -0.00273512, -0.000905738, -0.0310972, 0.214941, 0.134816
821.22223027100005766, -0.00121623, -0.00273534, -0.000908162, -0.0330993, 0.214978, 0.133308
821.25554661399996803, -0.0012163, -0.00273677, -0.000903975, -0.0329385, 0.212825, 0.131237
821.28886294799997358, -0.00121766, -0.00273869, -0.000899922, -0.0302688, 0.218765, 0.128534
821.32217928099998971, -0.00121969, -0.0027387, -0.000898235, -0.0299604, 0.227369, 0.123912
821.35549558599996089, -0.00121904, -0.00273823, -0.000898994, -0.0316765, 0.228156, 0.122559
821.38881191899997702, -0.00121869, -0.00273806, -0.000899596, -0.0341073, 0.225733, 0.124742
821.4222782519999555, -0.00121863, -0.00273762, -0.000900265, -0.0362368, 0.222877, 0.126573
821.45559455700004037, -0.0012189, -0.00273768, -0.000901034, -0.0349799, 0.219786, 0.127746
821.48891088599998511, -0.00121887, -0.00273795, -0.000901394, -0.0312259, 0.217049, 0.128876
821.52222728100002769, -0.00121878, -0.00273809, -0.00090145, -0.0335435, 0.219358, 0.129242
821.55554361400004382, -0.00121844, -0.0027381, -0.000901365, -0.0361481, 0.220639, 0.13075
821.588859919000015, -0.00121776, -0.00273826, -0.000902901, -0.0357655, 0.217375, 0.133416
821.62217624799995974, -0.00121748, -0.00273796, -0.000903103, -0.0343102, 0.215726, 0.131387
821.65549258099997587, -0.00121742, -0.00273907, -0.00090247, -0.0340999, 0.215346, 0.131812
821.68880891900005281, -0.00121667, -0.00273996, -0.000901407, -0.0357877, 0.215865, 0.130591
821.72212528099998963, -0.00121535, -0.00273971, -0.000901641, -0.0375535, 0.218823, 0.131487
821.7555916139999681, -0.00121402, -0.00274014, -0.000901158, -0.0369225, 0.218677, 0.133263
821.78890794799997366, -0.00121307, -0.00274179, -0.000899409, -0.036671, 0.219156, 0.134885
821.8222242860000506, -0.00121278, -0.00273969, -0.000899736, -0.0373965, 0.21811, 0.136686
821.85554061400000592, -0.00122524, -0.00272682, -0.000896124, -0.0397748, 0.219935, 0.12577
821.88885694800001147, -0.00122655, -0.00272406, -0.000895161, -0.0408946, 0.222344, 0.122165
821.92217321900000115, -0.00122716, -0.0027246, -0.000895515, -0.0407514, 0.221529, 0.123407
821.95548961400004373, -0.00122729, -0.002725, -0.00089504, -0.0399306, 0.222099, 0.125186
821.9888059139999541, -0.00122673, -0.00272497, -0.000895159, -0.0381096, 0.222426, 0.125243
822.02212140799997542, -0.00122583, -0.0027251, -0.000895441, -0.0373818, 0.220644, 0.123307
822.05543580400001247, -0.00122545, -0.002725, -0.000896047, -0.0394169, 0.220074, 0.121219
822.08875023799998871, -0.00122513, -0.0027254, -0.000896524, -0.0408137, 0.218086, 0.121411
822.12221466899995903, -0.00122517, -0.00272554, -0.00089704, -0.0424269, 0.214834, 0.119814
822.15552913199996965, -0.00122533, -0.00272616, -0.000897515, -0.0414006, 0.21154, 0.12184
822.18884350400003314, -0.00123162, -0.00272832, -0.000893239, -0.0439542, 0.211418, 0.113977
822.22215797199999088, -0.00123095, -0.00272881, -0.000893155, -0.042191, 0.210743, 0.114324
822.25547240599996712, -0.0012313, -0.00273021, -0.000892181, -0.0410542, 0.211961, 0.11258
822.28878686899997774, -0.00123164, -0.00273057, -0.000890712, -0.0410621, 0.211619, 0.113841
822.32210126999996191, -0.00123216, -0.00272915, -0.000891476, -0.0413028, 0.212477, 0.110425
822.35541570400005185, -0.00123265, -0.00272819, -0.000892718, -0.0420801, 0.212114, 0.108761
822.38873014299997521, -0.00123294, -0.00273011, -0.000892346, -0.0416827, 0.20848, 0.113413
822.42204457299999376, -0.0012331, -0.0027302, -0.000892275, -0.0398992, 0.208323, 0.114098
822.45550900299997465, -0.00123326, -0.00273013, -0.000892089, -0.0389523, 0.208363, 0.113919
822.48882346599998527, -0.00123354, -0.00273034, -0.000892334, -0.0367719, 0.20885, 0.116139
822.52213786699996945, -0.00123371, -0.00273054, -0.000893364, -0.0355595, 0.207238, 0.117646
