time, bias_gyr_x, bias_gyr_y, bias_gyr_z, bias_acc_x, bias_acc_y, bias_acc_z
-1, 0, 0, 0, 0, 0, 0
844.56002307599999313, 0, 0, 0, 0, 0, 0
844.59333940900000925, -0.0293547, -0.0525987, -0.00476806, -0.000146124, -1.6931e-05, -6.86184e-05
844.62665570900003331, -0.0319508, -0.0618207, -0.0119225, 0.0032144, 0.000152559, -0.00100441
844.65997207600003094, -0.0460954, -0.0602672, -0.00912727, -0.0167737, -0.0042683, 0.00141747
844.69328838100000212, -0.050038, -0.0612314, -0.0108628, -0.0259917, -0.00425984, 0.00224559
844.72660471400001825, -0.0509975, -0.0595723, -0.0108697, -0.0574946, -0.0066207, 0.00648313
844.75992107599995506, -0.0453782, -0.0565269, -0.0105613, -0.140859, -0.0122558, 0.0177541
844.79323740899997119, -0.0443184, -0.049565, -0.00925514, -0.18314, -0.015104, 0.0225712
844.82655374299997675, -0.0401865, -0.0454659, -0.00978153, -0.213709, -0.0168471, 0.0255656
844.86002004299996315, -0.0409037, -0.0441293, -0.0094263, -0.244346, -0.0190341, 0.0290177
844.89333640899997135, -0.0407059, -0.0427285, -0.00916293, -0.233261, -0.0182417, 0.0285696
844.92665274299997691, -0.041176, -0.0414429, -0.00866297, -0.225367, -0.0174201, 0.028572
844.95996907599999304, -0.0415693, -0.0404984, -0.00850514, -0.215649, -0.0162048, 0.0292195
844.99328964699998323, -0.0414215, -0.040179, -0.00813166, -0.199876, -0.0141093, 0.0292104
845.02660174300001472, -0.0412376, -0.0393636, -0.00780505, -0.186519, -0.0124927, 0.0299198
845.05991807600003085, -0.0412391, -0.0383889, -0.00750639, -0.181938, -0.0109894, 0.0296105
845.09323440900004698, -0.0410721, -0.0373371, -0.00714756, -0.173712, -0.00838415, 0.0254766
845.12655074200006311, -0.04157, -0.0361181, -0.00653038, -0.16959, -0.00654412, 0.0215735
845.15986707599995498, -0.0424716, -0.0353053, -0.00600126, -0.168211, -0.00562999, 0.0179348
845.19318340899997111, -0.0431113, -0.0344877, -0.0055332, -0.1631, -0.00252356, 0.0150135
845.22664974200006327, -0.0433463, -0.0339125, -0.00506175, -0.155429, 0.00196793, 0.00782788
845.25996603800001594, -0.0432577, -0.0333665, -0.00453183, -0.148853, 0.00668871, -0.00381789
845.29328240899997127, -0.0430347, -0.0330105, -0.00410537, -0.143804, 0.0115997, -0.0216796
845.3265987419999874, -0.0424349, -0.0331756, -0.00396296, -0.139943, 0.0154077, -0.0376641
845.35991504200001145, -0.0414051, -0.0339235, -0.0043891, -0.135295, 0.020856, -0.051229
845.39323140900000908, -0.0407644, -0.0343884, -0.00467033, -0.131405, 0.0240978, -0.0642886
845.42654771399998026, -0.040401, -0.0344786, -0.00479835, -0.126133, 0.0304635, -0.0789346
845.45986470000002555, -0.0399748, -0.0347773, -0.00465764, -0.122664, 0.0343521, -0.0922584
845.49318037600005482, -0.0396616, -0.0348315, -0.00461324, -0.12086, 0.0363351, -0.100437
845.52649670899995726, -0.0393148, -0.0348826, -0.00469762, -0.118603, 0.0388007, -0.108453
845.55996304699999655, -0.0387817, -0.0351248, -0.00493685, -0.115907, 0.0414552, -0.118691
845.59327940900004705, -0.038739, -0.0350373, -0.00467702, -0.113227, 0.0438668, -0.123143
845.62659574200006318, -0.0385031, -0.0351368, -0.00461218, -0.11327, 0.0447493, -0.121263
845.65991204199997355, -0.0384114, -0.0352206, -0.00442583, -0.111935, 0.0460233, -0.11965
845.69322840899997118, -0.0384527, -0.0351874, -0.00416903, -0.110059, 0.0467965, -0.108283
845.72654471400005605, -0.0384282, -0.0351483, -0.00419644, -0.107213, 0.0458318, -0.116652
845.75986107599999286, -0.0383799, -0.0349904, -0.0042643, -0.103732, 0.0429614, -0.122942
845.79317740900000899, -0.0383845, -0.0351038, -0.00403218, -0.0977187, 0.036398, -0.111648
845.82649374200002512, -0.0382264, -0.0348815, -0.004262, -0.0965394, 0.0353734, -0.121304
845.85981004200004918, -0.038013, -0.0349049, -0.00454746, -0.0923839, 0.0264209, -0.12825
845.89312637600005473, -0.0377337, -0.0350916, -0.00512332, -0.0927557, 0.0199071, -0.154392
845.92659270900003321, -0.0377033, -0.0346565, -0.00519589, -0.0879908, 0.0177685, -0.152345
845.95990907600003084, -0.0379997, -0.0345886, -0.00482675, -0.0807345, 0.0106774, -0.12921
845.99322540900004697, -0.0380736, -0.0340664, -0.00469923, -0.0820614, 0.0304272, -0.135437
846.0265417420000631, -0.0387128, -0.0334715, -0.00407724, -0.078763, 0.0432661, -0.115464
846.05985804700003428, -0.03909, -0.0333039, -0.00360643, -0.0775364, 0.0550651, -0.0997347
846.09317440899997109, -0.0393755, -0.0329648, -0.00328759, -0.0773903, 0.0790874, -0.0893419
846.12649074199998722, -0.0397054, -0.0326475, -0.00311386, -0.0772338, 0.100926, -0.0879757
846.15980707599999278, -0.0401947, -0.0322976, -0.00274851, -0.0827191, 0.139365, -0.0950852
846.19312337999997453, -0.0405304, -0.0316057, -0.0024976, -0.0861542, 0.174493, -0.101184
846.22643971399998009, -0.0406499, -0.0308551, -0.00240411, -0.0867117, 0.203806, -0.0964693
846.25990604200001144, -0.0406693, -0.0303483, -0.00237145, -0.0896418, 0.232843, -0.100614
846.29322237600001699, -0.0407785, -0.029689, -0.00233639, -0.0956113, 0.2744, -0.114673
846.32653870900003312, -0.0408368, -0.029111, -0.00227805, -0.0977874, 0.3011, -0.119496
846.35985507600003075, -0.0408645, -0.0285812, -0.00220239, -0.0983619, 0.327875, -0.113616
846.39317140900004688, -0.0410102, -0.0278817, -0.00216692, -0.0981033, 0.351758, -0.105429
846.42648771400001806, -0.0412402, -0.0272855, -0.00210595, -0.0973646, 0.369357, -0.100181
846.45980407599995488, -0.0414441, -0.0264089, -0.0021015, -0.0971799, 0.389416, -0.0979762
846.49312037599997893, -0.0416888, -0.0257087, -0.0020658, -0.0971916, 0.406229, -0.0966351
846.52643670899999506, -0.041808, -0.0249863, -0.0020049, -0.0959619, 0.422083, -0.0869722
846.55975307100004557, -0.0419624, -0.0246457, -0.00194599, -0.0945134, 0.428975, -0.0796442
846.59306940900000882, -0.0421527, -0.0244026, -0.00182837, -0.0953124, 0.439235, -0.0800193
846.62653570899999522, -0.042251, -0.0241036, -0.00171601, -0.0953794, 0.449577, -0.0763903
846.65985204200001135, -0.0424251, -0.0232872, -0.00163762, -0.0941747, 0.459208, -0.0673816
846.69316840900000898, -0.0426636, -0.0223894, -0.00148971, -0.0920503, 0.462073, -0.0576118
846.72648474200002511, -0.0427525, -0.0214889, -0.00145532, -0.0928052, 0.470551, -0.0589406
846.75980104200004916, -0.0428453, -0.0207351, -0.00128704, -0.0936256, 0.479008, -0.0612997
846.79311734700002035, -0.043063, -0.0196193, -0.000788853, -0.091963, 0.472971, -0.0611085
846.82643374200006292, -0.0430404, -0.0187514, -0.000665365, -0.0915187, 0.471768, -0.0610735
846.85975007599995479, -0.0437564, -0.0171735, 1.51217e-05, -0.0911726, 0.462296, -0.070821
846.89306640400002379, -0.0442861, -0.0157119, 0.000453769, -0.0893902, 0.448092, -0.0737934
846.92638274199998705, -0.0445744, -0.014739, 0.000686208, -0.0895877, 0.441154, -0.0794243
846.95984907599995495, -0.0451342, -0.0134289, 0.00140873, -0.0884142, 0.418492, -0.095417
846.99316537599997901, -0.0455474, -0.0121127, 0.00196075, -0.0858788, 0.389229, -0.106891
847.02648170899999513, -0.0456008, -0.0111484, 0.00229868, -0.0836892, 0.363819, -0.116286
847.05979804200001126, -0.0459805, -0.00953947, 0.00293944, -0.0881479, 0.346397, -0.148619
847.09311437999997452, -0.0459558, -0.00893449, 0.00326753, -0.0905246, 0.336489, -0.166577
847.12643071399998007, -0.0455726, -0.00885614, 0.00342454, -0.0915007, 0.332367, -0.178715
847.15974704200004908, -0.0452865, -0.00875872, 0.00376159, -0.0927603, 0.323885, -0.199311
847.19306338000001233, -0.0450881, -0.0082526, 0.00390973, -0.0929237, 0.307259, -0.211258
847.22637970899995707, -0.0449982, -0.00804901, 0.00386489, -0.0922996, 0.300942, -0.210587
847.2596960759999547, -0.0448206, -0.00812086, 0.00375569, -0.0921741, 0.304131, -0.205633
847.29316237600005479, -0.0447269, -0.00809218, 0.00384415, -0.0927828, 0.303037, -0.209444
847.32647870899995723, -0.0447128, -0.00778975, 0.00402592, -0.093654, 0.292991, -0.217617
847.35979507499996544, -0.0444943, -0.00770318, 0.00412198, -0.0942888, 0.288813, -0.223678
847.39311137499998949, -0.0444613, -0.00751825, 0.00427612, -0.0950553, 0.280671, -0.230475
847.42642771400005586, -0.0444331, -0.00751479, 0.00432895, -0.0952857, 0.280672, -0.230944
847.45974407500000325, -0.0442443, -0.00757484, 0.00432114, -0.0949999, 0.281525, -0.232364
847.49306037500002731, -0.0441348, -0.00752769, 0.0044562, -0.0948149, 0.278729, -0.239896
847.52637674200002493, -0.0440444, -0.00763739, 0.00451743, -0.0950115, 0.282022, -0.241041
847.55969304699999611, -0.0438564, -0.00769416, 0.00443451, -0.094729, 0.282736, -0.242391
847.59300937500006512, -0.0435903, -0.00770334, 0.00439897, -0.0944196, 0.281475, -0.245717
847.62632574200006275, -0.0433515, -0.00769555, 0.00421824, -0.0937877, 0.279386, -0.248468
847.65979207500004122, -0.0432887, -0.00759392, 0.00424257, -0.0932784, 0.274055, -0.255128
847.6931083800000124, -0.0432659, -0.00731632, 0.00439029, -0.0924074, 0.263373, -0.267408
847.72642471400001796, -0.0433232, -0.00685544, 0.00461708, -0.0917808, 0.252424, -0.276214
847.75974107499996535, -0.0434082, -0.00688465, 0.00494133, -0.0919843, 0.256298, -0.270485
847.79305738000005022, -0.0433278, -0.00685555, 0.00484944, -0.0921474, 0.255615, -0.27183
847.82637374199998703, -0.0432206, -0.00686826, 0.0048052, -0.0917526, 0.252644, -0.276022
847.85969007500000316, -0.043076, -0.00712578, 0.00470691, -0.0907802, 0.247031, -0.283806
847.89300700399996913, -0.0428098, -0.00728725, 0.00432769, -0.090327, 0.238617, -0.298768
847.92632270900003277, -0.0427876, -0.00739023, 0.00432868, -0.0891167, 0.230899, -0.308608
847.9596390420000489, -0.0428757, -0.00737981, 0.00437267, -0.0884644, 0.228039, -0.311374
847.99310541800002738, -0.0429638, -0.00721951, 0.00439133, -0.0881111, 0.22708, -0.315559
848.02642170900003293, -0.0428865, -0.00713128, 0.00443366, -0.0880598, 0.227768, -0.316922
848.05973804200004906, -0.0428827, -0.00702524, 0.00448418, -0.0891211, 0.237127, -0.312386
848.09305434700002024, -0.0429714, -0.00683946, 0.00453486, -0.0897371, 0.243695, -0.311014
848.12637073700000201, -0.0431166, -0.00658651, 0.00461285, -0.0880284, 0.235653, -0.31596
848.159687047000034, -0.0430995, -0.00640787, 0.00453545, -0.0882118, 0.23813, -0.31859
848.19300338000005013, -0.0430642, -0.0059199, 0.00449934, -0.0879196, 0.244085, -0.320085
848.22631971300006626, -0.0430404, -0.00566014, 0.00440362, -0.0879231, 0.247056, -0.323308
848.25963601800003744, -0.0430055, -0.00542526, 0.00435642, -0.0883797, 0.253424, -0.324075
848.29295240900000863, -0.0430678, -0.00503185, 0.00447088, -0.0889421, 0.266812, -0.320208
848.32626874200002476, -0.0431126, -0.00452539, 0.0044981, -0.0889922, 0.277339, -0.318582
848.35973507500000323, -0.0432128, -0.00419045, 0.00452565, -0.0891248, 0.284177, -0.317902
848.39305137500002729, -0.0433688, -0.00380699, 0.00459734, -0.0890112, 0.290747, -0.315757
848.42636771299999054, -0.0434877, -0.00355146, 0.00470409, -0.0886073, 0.293239, -0.313398
848.4596840469999961, -0.0435785, -0.00333866, 0.00470556, -0.0886425, 0.295747, -0.312795
848.49300038000001223, -0.0436824, -0.00311872, 0.00468902, -0.0880902, 0.29597, -0.310373
848.52631674200006273, -0.0437039, -0.00302965, 0.00471368, -0.0878332, 0.296194, -0.309084
848.55963307499996517, -0.0437809, -0.00277675, 0.00477562, -0.0868832, 0.293625, -0.304917
848.59294940899997073, -0.0439145, -0.00251289, 0.0048339, -0.0870939, 0.294372, -0.305992
848.62626570899999479, -0.0440002, -0.00219637, 0.00486563, -0.0872471, 0.295814, -0.306706
848.65958207500000299, -0.0441092, -0.0020491, 0.00487769, -0.0866812, 0.293732, -0.304081
848.69304837499998939, -0.044203, -0.00168911, 0.00491771, -0.0853996, 0.288108, -0.298404
848.72636474199998702, -0.0441297, -0.00157212, 0.0049662, -0.0850874, 0.285154, -0.298231
848.75968108000006396, -0.044148, -0.00131137, 0.00503396, -0.0846904, 0.279623, -0.298179
848.7929974090000087, -0.0441473, -0.00106485, 0.00510361, -0.0840222, 0.272674, -0.297667
848.82631374200002483, -0.0441522, -0.000800574, 0.00521462, -0.0836827, 0.264286, -0.300194
848.85963007500004096, -0.0440549, -0.000393617, 0.00524369, -0.0833421, 0.251909, -0.301541
848.89294637500006502, -0.04381, -0.000273017, 0.00518262, -0.0825456, 0.248709, -0.296567
848.92626271300002827, -0.0435666, -0.00024114, 0.00507582, -0.0814595, 0.248624, -0.28838
848.95957904700003382, -0.0434727, -0.000176721, 0.00507251, -0.0808756, 0.245985, -0.286403
848.99289538000004995, -0.0433942, -9.646e-05, 0.00503088, -0.0809506, 0.243967, -0.285401
849.02621174199998677, -0.0433321, 4.66182e-05, 0.00501282, -0.0806033, 0.237213, -0.283937
849.05967804199997317, -0.0433908, 0.000104632, 0.00499332, -0.0798766, 0.234956, -0.280052
849.0929944089999708, -0.0433822, 0.000240929, 0.00495707, -0.0793729, 0.229239, -0.27646
849.12631074199998693, -0.0431974, 0.000338547, 0.00489411, -0.0786772, 0.22541, -0.272445
849.15962707500000306, -0.0429656, 0.000345055, 0.00474593, -0.077091, 0.227266, -0.262529
849.19294340900000861, -0.0427384, 0.000310598, 0.00467616, -0.0757745, 0.230463, -0.258154
849.22625974200002474, -0.0426072, 0.000349319, 0.00468476, -0.0752014, 0.225379, -0.260875
849.25957607500004087, -0.0424441, 0.000354747, 0.00470179, -0.0746622, 0.222807, -0.264454
849.29289240900004643, -0.04223, 0.000339387, 0.00467339, -0.0739493, 0.223936, -0.263609
849.3262087089999568, -0.0421509, 0.00033711, 0.00466713, -0.0735069, 0.223819, -0.263772
849.35952504700003374, -0.0420392, 0.000290826, 0.0046078, -0.0729874, 0.227574, -0.260817
849.39299140900004659, -0.041916, 0.000196438, 0.00452498, -0.0723242, 0.235754, -0.257055
849.42630770899995696, -0.0418293, 0.000100584, 0.00448359, -0.0715774, 0.242927, -0.256062
849.45962407499996516, -0.0417313, 7.3015e-06, 0.00439296, -0.0708571, 0.250841, -0.253069
849.49294037499998922, -0.041614, -8.34799e-05, 0.00429948, -0.070079, 0.258848, -0.25056
849.52625674199998684, -0.0415701, -0.000191531, 0.00424689, -0.0694425, 0.268417, -0.249251
849.55957304699995802, -0.0414095, -0.000311377, 0.00424914, -0.0686982, 0.276748, -0.250307
849.5928894080000191, -0.0412998, -0.000345336, 0.00419658, -0.0682097, 0.279107, -0.249625
849.62620573699996385, -0.0412173, -0.000356517, 0.00418088, -0.0683023, 0.279677, -0.248771
849.65952204200004871, -0.0411735, -0.000444676, 0.00416036, -0.06802, 0.284231, -0.248328
849.69283837000000403, -0.0411906, -0.000458113, 0.00413472, -0.0672077, 0.283561, -0.250056
849.72615474200006247, -0.0411079, -0.000481951, 0.0041086, -0.0662728, 0.283386, -0.251989
849.75962107500004095, -0.0411163, -0.000480987, 0.00398028, -0.0653901, 0.280961, -0.253668
849.792937375000065, -0.0409945, -0.00047132, 0.00387646, -0.0648799, 0.279612, -0.255174
849.82625370799996745, -0.040899, -0.000475744, 0.00380488, -0.0645932, 0.279063, -0.256415
849.85957007499996507, -0.040725, -0.000493531, 0.00371137, -0.0646666, 0.279266, -0.257914
849.89288638000004994, -0.0406877, -0.000491277, 0.00360287, -0.0643634, 0.278289, -0.26033
849.92620270800000526, -0.0406482, -0.000488783, 0.00355383, -0.0641108, 0.277772, -0.261696
849.95951907500000289, -0.0406142, -0.000463646, 0.00348582, -0.0637876, 0.276983, -0.26366
849.99283537999997407, -0.0404223, -0.000411336, 0.0033551, -0.0633819, 0.276023, -0.26698
850.02615171800005101, -0.0403764, -0.000403438, 0.00323202, -0.0633102, 0.275646, -0.27054
850.05946801300001425, -0.0405171, -0.000372315, 0.00313339, -0.0641472, 0.276551, -0.275627
850.09293440800001918, -0.0407353, -0.000315301, 0.00309268, -0.0644712, 0.277506, -0.278338
850.12625067999999828, -0.0409965, -0.000271049, 0.00312736, -0.0632553, 0.277448, -0.274829
850.15956707500004086, -0.0412041, -0.000211074, 0.0031079, -0.0625544, 0.277765, -0.273888
850.19288338000001204, -0.0413898, -0.000125156, 0.00304879, -0.062, 0.278259, -0.274046
850.22619968499998322, -0.0415709, 2.46859e-05, 0.0029972, -0.0617105, 0.280118, -0.274476
850.25951607499996499, -0.0416932, 3.36068e-05, 0.00294588, -0.0623828, 0.280234, -0.278574
850.29283240799998111, -0.0417737, 7.90732e-05, 0.00291158, -0.0629055, 0.280942, -0.281598
850.32614875100000518, -0.0418671, 0.000153646, 0.00288486, -0.0629638, 0.281969, -0.282123
850.35946504200001073, -0.0419328, 0.000170218, 0.00286874, -0.0626889, 0.282168, -0.280739
850.39278137500002686, -0.0419159, 0.000215205, 0.00285329, -0.0624089, 0.282977, -0.279058
850.42624767999996038, -0.0419681, 0.00026442, 0.00286353, -0.0621659, 0.283842, -0.277477
850.45956404599996858, -0.0419956, 0.000330644, 0.00286211, -0.0618584, 0.284672, -0.275571
850.49288039400005346, -0.0421054, 0.000381442, 0.00291073, -0.0614377, 0.28565, -0.272923
850.52619670800004315, -0.0421713, 0.000409656, 0.00294391, -0.0614483, 0.285929, -0.273059
850.55951307500004077, -0.0423001, 0.000440898, 0.00298284, -0.0607921, 0.286585, -0.268947
850.5928294080000569, -0.0423758, 0.000471855, 0.00300022, -0.0601492, 0.287118, -0.264774
850.62614574200006246, -0.042369, 0.000486054, 0.00295022, -0.0597144, 0.287555, -0.260826
850.6594620749999649, -0.0422847, 0.000508423, 0.00290907, -0.0593601, 0.287676, -0.257703
850.69277837499998896, -0.0423726, 0.000487607, 0.00290575, -0.0586162, 0.290106, -0.252169
850.72609474199998658, -0.0423686, 0.000487662, 0.00290547, -0.0577638, 0.292353, -0.24611
850.75941104200001064, -0.0425033, 0.000448399, 0.00294664, -0.0575234, 0.295794, -0.245186
850.79287740799998119, -0.0426242, 0.000356345, 0.00299389, -0.0573724, 0.303001, -0.244995
850.82619371300006605, -0.0427052, 0.000322379, 0.00299182, -0.0569408, 0.30802, -0.2404
850.8595100420000108, -0.0427477, 0.000282169, 0.00300822, -0.0563395, 0.312167, -0.236862
850.89282634599999255, -0.0428138, 0.000248304, 0.00301395, -0.0557524, 0.317467, -0.232945
850.92614271299999018, -0.0427732, 0.000203654, 0.00299193, -0.0555164, 0.326132, -0.228678
850.95945904600000631, -0.0426828, 0.00014872, 0.00300772, -0.0552842, 0.334961, -0.227099
850.99277719400004116, -0.0425901, 0.000141234, 0.00301683, -0.0546288, 0.33874, -0.223623
851.02609170799996718, -0.0424731, 0.000132717, 0.00301724, -0.0541521, 0.341434, -0.22092
851.05940807499996481, -0.0423423, 8.28163e-05, 0.00298518, -0.0540457, 0.35223, -0.216191
851.09272440799998094, -0.0422867, 2.85181e-05, 0.00296302, -0.0536867, 0.364025, -0.211158
851.12619074200006253, -0.0421887, 9.37349e-06, 0.00295337, -0.053289, 0.368968, -0.208129
851.15950707499996497, -0.0420892, -9.30436e-08, 0.00294539, -0.0527596, 0.372655, -0.205496
851.19282338000004984, -0.0420434, -4.64145e-06, 0.00293986, -0.0523247, 0.375012, -0.203544
851.22613974199998665, -0.0420155, -4.00617e-05, 0.00292694, -0.0519038, 0.382975, -0.200745
851.25945603700006359, -0.0418913, -6.50033e-05, 0.00289009, -0.0516136, 0.38934, -0.197431
851.29277240800001891, -0.0418228, -0.000105354, 0.00288705, -0.0513056, 0.39561, -0.196662
851.32608874200002447, -0.0417254, -0.000157708, 0.00287331, -0.051079, 0.405521, -0.19483
851.3594050750000406, -0.0416748, -0.000208174, 0.00283402, -0.0506932, 0.415049, -0.191805
851.39272140800005673, -0.0415825, -0.000253977, 0.00279776, -0.0501129, 0.422376, -0.189881
851.4260377079999671, -0.0414403, -0.000303039, 0.00279165, -0.0500653, 0.429294, -0.189028
851.45935404600004404, -0.0413219, -0.000338058, 0.00272697, -0.0498958, 0.435127, -0.186096
851.49282040800005689, -0.0412108, -0.000371944, 0.00267794, -0.0495888, 0.439727, -0.184386
851.52613671300002807, -0.0411514, -0.000384975, 0.0026437, -0.0493283, 0.44144, -0.183796
851.55945304199997281, -0.0410692, -0.000413351, 0.00258472, -0.0492138, 0.444569, -0.182646
851.59276937499998894, -0.0410236, -0.000450342, 0.00253962, -0.0486475, 0.446694, -0.182816
851.62608571300006588, -0.041014, -0.000480203, 0.00251259, -0.0478903, 0.447782, -0.184038
851.65940204200001062, -0.0410555, -0.000494804, 0.00243753, -0.0470048, 0.446646, -0.18625
851.69271840800001883, -0.0409755, -0.000476748, 0.00239108, -0.0463362, 0.444277, -0.188486
851.72603474200002438, -0.0410494, -0.000474751, 0.00236684, -0.0461194, 0.443083, -0.189375
851.75935107500004051, -0.0409981, -0.000481892, 0.00229469, -0.0463389, 0.443303, -0.190603
851.79266738000001169, -0.0409603, -0.000525064, 0.00216008, -0.0456715, 0.443621, -0.194264
851.82613374599998224, -0.0407544, -0.000573139, 0.00200242, -0.0452073, 0.445166, -0.198546
851.85945005600001423, -0.0408487, -0.000658624, 0.00193899, -0.0443319, 0.446232, -0.200106
851.8927664080000568, -0.0408592, -0.000680105, 0.00189044, -0.0441677, 0.446259, -0.201531
851.92608270799996717, -0.0408785, -0.000697719, 0.00185686, -0.0442376, 0.446366, -0.202729
851.95939904600004411, -0.0410434, -0.000705889, 0.00182574, -0.0444953, 0.446938, -0.204351
851.99271538000004966, -0.0411086, -0.000712293, 0.00175357, -0.0449688, 0.447859, -0.207625
852.02603174099999706, -0.0412245, -0.00074106, 0.0017127, -0.0448174, 0.447331, -0.209099
852.05934804100002111, -0.0414228, -0.000767299, 0.00170927, -0.0439355, 0.445799, -0.207814
852.09266437500002667, -0.0415673, -0.000829717, 0.0016917, -0.0437317, 0.443903, -0.208312
852.1259807080000428, -0.0416331, -0.00079704, 0.00164359, -0.0442386, 0.445391, -0.211823
852.15929704100005893, -0.0416593, -0.000696638, 0.00161358, -0.0440152, 0.447998, -0.212199
852.19276337500002683, -0.0417245, -0.000599482, 0.00159884, -0.043865, 0.450642, -0.212088
852.22607974100003503, -0.0417441, -0.000514631, 0.00157122, -0.0434417, 0.452476, -0.21082
852.25939604600000621, -0.0417629, -0.00044522, 0.00156304, -0.0425751, 0.45331, -0.206339
852.29271240800005671, -0.0418876, -0.000415706, 0.00155506, -0.0419522, 0.453261, -0.202684
852.32602870799996708, -0.0419527, -0.000403501, 0.00156258, -0.0415685, 0.453165, -0.19991
852.35934501799999907, -0.0420068, -0.000407402, 0.00161201, -0.0417362, 0.453806, -0.200759
852.39266140799998084, -0.0421096, -0.000407127, 0.00168442, -0.0419567, 0.454784, -0.202342
852.42597774099999697, -0.0422278, -0.000408428, 0.00175297, -0.0419953, 0.455464, -0.202915
852.45929407500000252, -0.0422829, -0.000422949, 0.00178583, -0.0421946, 0.456514, -0.204574
852.49261037500002658, -0.0422547, -0.000431443, 0.00177145, -0.0423526, 0.457093, -0.205231
852.52607670800000506, -0.0422065, -0.000441723, 0.00176358, -0.0421602, 0.457666, -0.203069
852.55939305100002912, -0.0422481, -0.000444799, 0.00175886, -0.0417814, 0.458066, -0.199072
852.59270937899998444, -0.0422459, -0.000441834, 0.00176166, -0.0413378, 0.458353, -0.195084
852.62602574100003494, -0.0422406, -0.000441454, 0.00176439, -0.0410009, 0.459364, -0.191995
852.65934201799996117, -0.0422556, -0.000452834, 0.00176118, -0.0408243, 0.462543, -0.189472
852.69265840800005662, -0.0423366, -0.000459946, 0.00177259, -0.0407785, 0.464631, -0.189102
852.72597487899997759, -0.0423513, -0.000465614, 0.00178503, -0.0408043, 0.466401, -0.189697
852.75929107499996462, -0.0423959, -0.000467331, 0.00179424, -0.0406522, 0.468996, -0.187789
852.79260796500000197, -0.0423496, -0.000471266, 0.00177772, -0.0405076, 0.473138, -0.18398
852.82592373700003918, -0.0423572, -0.000486139, 0.00176308, -0.0400142, 0.480888, -0.17759
852.85924004599996806, -0.0423621, -0.000502789, 0.00176306, -0.0396662, 0.488156, -0.173593
852.89270637499998884, -0.0422692, -0.000549005, 0.00175709, -0.0395437, 0.501953, -0.170041
852.92602270800000497, -0.0421692, -0.000589036, 0.00174788, -0.0393059, 0.515174, -0.165311
852.95933944099999735, -0.0421488, -0.00061891, 0.00175599, -0.0388148, 0.526795, -0.161449
852.99265537899998435, -0.0421054, -0.000643652, 0.00175371, -0.0386032, 0.535819, -0.158606
853.02597174100003485, -0.0420517, -0.000648861, 0.0017506, -0.0382877, 0.540594, -0.156413
853.05928804100005891, -0.0420676, -0.000670611, 0.00176312, -0.0378964, 0.548078, -0.154871
853.09260437900002216, -0.042018, -0.000693021, 0.00175491, -0.0377318, 0.555567, -0.152423
853.12592070799996691, -0.0419174, -0.000716353, 0.00173444, -0.037567, 0.563659, -0.149539
853.15923704600004385, -0.0418367, -0.000755343, 0.00172725, -0.0373662, 0.574443, -0.14755
853.19255337499998859, -0.0416695, -0.00080104, 0.00167738, -0.0369047, 0.590147, -0.14198
853.22601971300002788, -0.0415883, -0.000825797, 0.00165944, -0.0368343, 0.598017, -0.13963
853.25933607499996469, -0.0414132, -0.000856356, 0.00163057, -0.0365664, 0.60517, -0.13737
853.29265235100001519, -0.041472, -0.000861359, 0.00168939, -0.036408, 0.601422, -0.14159
853.32596870800000488, -0.0414552, -0.00089257, 0.00167117, -0.0360393, 0.609174, -0.140137
853.35928504100002101, -0.0414239, -0.000920781, 0.00166461, -0.0359858, 0.615247, -0.138902
853.39260137899998426, -0.0413739, -0.000970859, 0.00165168, -0.0356748, 0.624078, -0.13775
853.42591770800004269, -0.04136, -0.00100272, 0.00164672, -0.0353936, 0.628243, -0.137712
853.45923404600000595, -0.0413585, -0.00101937, 0.00164132, -0.0352045, 0.629774, -0.137897
853.49255037900002208, -0.0413266, -0.00106429, 0.00164296, -0.0350388, 0.634279, -0.137372
853.52586674099995889, -0.0412325, -0.00110003, 0.00159555, -0.0346477, 0.637706, -0.138001
853.55918307499996445, -0.0411303, -0.00112675, 0.00153893, -0.0344704, 0.63993, -0.138502
853.59264940800005661, -0.0410328, -0.0011681, 0.00147533, -0.0344357, 0.642592, -0.138637
853.62596571300002779, -0.0409313, -0.00115656, 0.00141249, -0.0340719, 0.641196, -0.141768
853.65928204600004392, -0.0408147, -0.00115836, 0.001338, -0.0337727, 0.640849, -0.144913
853.69259837900006005, -0.0407722, -0.00112731, 0.00127431, -0.0340932, 0.641627, -0.146804
853.72591467899997042, -0.040776, -0.00116611, 0.00116927, -0.0339409, 0.643399, -0.150134
853.75923107500000242, -0.0407041, -0.00119515, 0.00110394, -0.0336324, 0.643085, -0.153293
853.79254740800001855, -0.0406536, -0.00121055, 0.00102967, -0.0335377, 0.643204, -0.156697
853.82586374100003468, -0.0405006, -0.0012434, 0.000950424, -0.0333378, 0.642332, -0.160472
853.85918007500004023, -0.040396, -0.00127077, 0.000911454, -0.0331932, 0.641347, -0.162344
853.89249640800005636, -0.040494, -0.00126059, 0.00088158, -0.0329891, 0.6405, -0.16469
853.92596270800004277, -0.0406225, -0.00126246, 0.000867703, -0.0326372, 0.638663, -0.166567
853.95927925099999811, -0.0408654, -0.0012673, 0.000900178, -0.0319448, 0.634545, -0.167373
853.99259608900001695, -0.0411339, -0.00124336, 0.00092901, -0.0318712, 0.635034, -0.166642
854.02591174099995897, -0.0413831, -0.00121399, 0.000896401, -0.0322252, 0.638112, -0.16741
854.05922807399997509, -0.0413792, -0.00123331, 0.000924406, -0.0313737, 0.632396, -0.168365
854.09254437900005996, -0.0412407, -0.00124907, 0.000956814, -0.0310022, 0.629911, -0.167864
854.12586070800000471, -0.0411649, -0.00124541, 0.00097393, -0.031579, 0.634249, -0.166285
854.15917707400001291, -0.0412643, -0.00122325, 0.000939355, -0.0318335, 0.636286, -0.166906
854.19249337899998409, -0.0412508, -0.00121228, 0.000962034, -0.0323281, 0.640994, -0.165558
854.22580971299998964, -0.0410564, -0.00125269, 0.0010074, -0.0321925, 0.639158, -0.164972
854.25927607400001307, -0.0407444, -0.00125253, 0.00100736, -0.0324828, 0.641376, -0.165312
854.29259237899998425, -0.0405773, -0.00121639, 0.0010026, -0.0314865, 0.632896, -0.166065
854.32590870299998187, -0.0405409, -0.00121443, 0.00101643, -0.0313705, 0.632024, -0.166042
854.35922507400005088, -0.0405196, -0.00117741, 0.000995303, -0.0317412, 0.63674, -0.166031
854.39254137399996125, -0.040536, -0.00115708, 0.00100292, -0.032363, 0.643816, -0.165944
854.42585770799996681, -0.0405119, -0.00113118, 0.0010254, -0.0332964, 0.654695, -0.166162
854.45917404099998294, -0.0404972, -0.0011174, 0.00104003, -0.0343388, 0.666332, -0.16656
854.49249037900005987, -0.0404564, -0.00111607, 0.00102646, -0.0346494, 0.66958, -0.166627
854.52580674099999669, -0.0404779, -0.00114145, 0.00101797, -0.0342875, 0.665288, -0.166355
854.55912307400001282, -0.040524, -0.00116867, 0.00100916, -0.0341263, 0.663204, -0.166231
854.59243987000002107, -0.0405227, -0.00119652, 0.00100533, -0.0337937, 0.659472, -0.166232
854.62590574099999685, -0.0405831, -0.00120096, 0.00100128, -0.0336299, 0.657781, -0.166051
854.65922207400001298, -0.0406407, -0.00120308, 0.000991567, -0.0334724, 0.65627, -0.165748
854.69253840800001853, -0.0406269, -0.00119736, 0.000973929, -0.0333767, 0.655322, -0.165322
854.72585474100003466, -0.04058, -0.00120444, 0.000966599, -0.0330134, 0.651429, -0.165721
854.75917107400005079, -0.0404648, -0.0012328, 0.000979688, -0.0328555, 0.650728, -0.166872
854.79248740800005635, -0.0402415, -0.0012514, 0.000988042, -0.0328736, 0.651942, -0.167753
854.82580696499996975, -0.0401193, -0.00127219, 0.001004, -0.0328632, 0.652484, -0.168808
854.85912004600004366, -0.0400395, -0.0013177, 0.00101435, -0.0324707, 0.648759, -0.170344
854.89243644600003336, -0.0400531, -0.00135669, 0.00101273, -0.0320401, 0.644535, -0.171869
854.9257527409999966, -0.039961, -0.00138757, 0.00102055, -0.0314756, 0.637684, -0.174644
854.95921901200006232, -0.0398697, -0.00141076, 0.00104374, -0.0311491, 0.633476, -0.177453
854.99253539300002558, -0.0398864, -0.00141548, 0.00102795, -0.031283, 0.637028, -0.175081
855.02584826400004658, -0.0399205, -0.00141954, 0.000993351, -0.0313062, 0.638249, -0.172688
855.05915792700000111, -0.0399231, -0.00144076, 0.000957965, -0.0312139, 0.639442, -0.170845
855.09246803500002443, -0.0399848, -0.0014477, 0.000901293, -0.0308555, 0.634732, -0.169698
855.12577743300005295, -0.0400304, -0.00146178, 0.00087495, -0.0304064, 0.62777, -0.170907
855.15908723699999427, -0.0399886, -0.0014706, 0.000883387, -0.0301742, 0.624025, -0.172621
855.1923970069999541, -0.039964, -0.00147438, 0.000908899, -0.0300705, 0.621703, -0.174561
855.22570677700002761, -0.0399064, -0.00146217, 0.000949519, -0.03059, 0.628995, -0.173073
855.25901651300000594, -0.0397766, -0.00145333, 0.000988446, -0.0311522, 0.63796, -0.171219
855.2924762869999995, -0.0397599, -0.00146999, 0.00103563, -0.031284, 0.641299, -0.172424
855.32578605699995933, -0.039698, -0.00150501, 0.00104192, -0.0308073, 0.636017, -0.175634
855.35909579400004077, -0.0396812, -0.00152864, 0.0010462, -0.0301286, 0.6263, -0.180108
855.39240934899999047, -0.0396145, -0.00155252, 0.00104644, -0.0298096, 0.623408, -0.182049
855.42571536700006618, -0.0396336, -0.00155089, 0.00104263, -0.0301529, 0.628901, -0.179564
855.45902513700002601, -0.0396655, -0.00154136, 0.00106174, -0.0304868, 0.632694, -0.178201
855.49233490699998583, -0.0396488, -0.00154724, 0.00109243, -0.0306604, 0.635263, -0.177981
855.5256446490000144, -0.0396729, -0.00156978, 0.00106576, -0.0307386, 0.63789, -0.176811
855.55895444700001917, -0.0396137, -0.00159288, 0.00106029, -0.0304623, 0.636103, -0.177829
855.59226418900004774, -0.0395863, -0.00161861, 0.00107095, -0.0301306, 0.634042, -0.179055
855.62557395400006044, -0.0395491, -0.00163795, 0.00105246, -0.0298395, 0.631978, -0.18007
855.659033728000054, -0.0395244, -0.00167293, 0.00106628, -0.029484, 0.629995, -0.18111
855.69234344100004819, -0.0395163, -0.00170471, 0.00103816, -0.0294829, 0.630519, -0.181162
855.72565326799997365, -0.0395391, -0.00172339, 0.00102945, -0.0297292, 0.632514, -0.180416
855.75896300900001279, -0.039547, -0.00171485, 0.00103916, -0.0301533, 0.635551, -0.178994
855.79227275100004135, -0.0395491, -0.00170452, 0.00103715, -0.0304773, 0.63789, -0.178253
855.82558254499997474, -0.0394708, -0.00173006, 0.0010636, -0.0303089, 0.636366, -0.177851
855.85889234800004033, -0.0394565, -0.00174932, 0.00107325, -0.0295751, 0.630261, -0.179359
855.89220208899996578, -0.0394443, -0.00176346, 0.00104248, -0.0290814, 0.625703, -0.181786
855.92551185499996791, -0.039543, -0.00175246, 0.000984447, -0.0292717, 0.627051, -0.183653
855.95882161999998061, -0.0396631, -0.00172782, 0.000923096, -0.0295562, 0.629583, -0.185642
855.99228222199997163, -0.0396971, -0.00170695, 0.000849816, -0.030169, 0.63446, -0.187478
856.02559519099997942, -0.0396961, -0.00171037, 0.000795044, -0.0305965, 0.637069, -0.188981
856.05891166499998235, -0.0397514, -0.0016816, 0.000770831, -0.03112, 0.642901, -0.188697
856.0922279989999879, -0.0398526, -0.001653, 0.000735327, -0.0313621, 0.646055, -0.189701
856.12554433200000403, -0.0398468, -0.00164151, 0.000761373, -0.0311884, 0.64561, -0.188858
856.15886066500002016, -0.0398301, -0.00167833, 0.000818876, -0.0310682, 0.643564, -0.186563
856.19217696999999134, -0.0397957, -0.00170968, 0.000831128, -0.0314707, 0.646913, -0.184913
856.22549333200004185, -0.0398365, -0.00173979, 0.000817984, -0.0312154, 0.641432, -0.186294
856.25880966500005798, -0.0398159, -0.00179467, 0.000824116, -0.030501, 0.628341, -0.188785
856.29212596499996835, -0.0397597, -0.00175308, 0.000759997, -0.0306995, 0.63227, -0.19009
856.32544230300004529, -0.0397003, -0.00169402, 0.000748668, -0.0311179, 0.641872, -0.188564
856.35890866500005814, -0.0396156, -0.00168104, 0.000761502, -0.0311119, 0.642897, -0.188289
856.39222496499996851, -0.0396067, -0.00164904, 0.000744653, -0.0312969, 0.647393, -0.187704
856.42554129799998464, -0.0395552, -0.00162413, 0.000743617, -0.031334, 0.649494, -0.187486
856.458857637000051, -0.0395331, -0.00159982, 0.000747823, -0.031559, 0.654766, -0.186036
856.49217399799999839, -0.0394947, -0.0016162, 0.000746482, -0.0314239, 0.651549, -0.187046
856.52549030299996957, -0.0394603, -0.0016075, 0.000739651, -0.031373, 0.650995, -0.187437
856.55880666500002008, -0.0395394, -0.00157149, 0.000712806, -0.0321886, 0.66626, -0.181547
856.5921229980000362, -0.0395133, -0.00158487, 0.000742664, -0.0321248, 0.664852, -0.18236
856.62543933200004176, -0.0394849, -0.00158043, 0.00075479, -0.0320633, 0.664062, -0.183003
856.65875566500005789, -0.0392965, -0.00157723, 0.000805927, -0.0321089, 0.665058, -0.183542
856.69207197499997619, -0.0392099, -0.0016166, 0.000874062, -0.0321408, 0.664471, -0.184992
856.7255382749999626, -0.039126, -0.00164635, 0.000878729, -0.0317053, 0.656309, -0.189033
856.75885463200006598, -0.0394244, -0.00173191, 0.000901826, -0.0309613, 0.642078, -0.195369
856.79217096499996842, -0.0393882, -0.00173619, 0.000944572, -0.0311118, 0.643939, -0.195424
856.82548733199996605, -0.0392066, -0.00168462, 0.000945801, -0.0315208, 0.651594, -0.19144
856.85880366499998217, -0.0390837, -0.00162047, 0.000953941, -0.0317564, 0.656841, -0.189247
856.89211994100003267, -0.0388383, -0.00161928, 0.000966992, -0.0318875, 0.659206, -0.188929
856.9254363170000488, -0.0386117, -0.00161784, 0.000989843, -0.0322003, 0.665042, -0.187087
856.95875266999996711, -0.0385558, -0.00158477, 0.000967821, -0.0324333, 0.669456, -0.183953
856.99206896999999117, -0.0384823, -0.00155084, 0.000944035, -0.0325256, 0.671111, -0.182269
857.02538533200004167, -0.0385586, -0.00149058, 0.000911861, -0.0327689, 0.675639, -0.178864
857.05885163200002808, -0.0383997, -0.00145036, 0.000904711, -0.0329746, 0.67934, -0.177141
857.09216799399996489, -0.038122, -0.00143213, 0.000928495, -0.0330435, 0.680231, -0.177879
857.12548433200004183, -0.0378964, -0.00140855, 0.000945136, -0.0331718, 0.68199, -0.177726
857.15880066500005796, -0.0376914, -0.00138124, 0.000951381, -0.0333387, 0.684393, -0.176783
857.19211697000002914, -0.0374154, -0.0013467, 0.000954009, -0.0335066, 0.686482, -0.175873
857.22543329799998446, -0.0371294, -0.00130621, 0.000943894, -0.0337354, 0.689198, -0.174217
857.25874966499998209, -0.0367367, -0.00125801, 0.000937128, -0.0340417, 0.69301, -0.172277
857.29206597000006695, -0.036362, -0.00120673, 0.000932169, -0.0344278, 0.698743, -0.169678
857.32538227500003813, -0.0359552, -0.0011729, 0.000931529, -0.0346113, 0.700953, -0.168997
857.3586986650000199, -0.0355478, -0.00113782, 0.00091964, -0.0347043, 0.701614, -0.168785
857.39216497000006711, -0.0350813, -0.0011196, 0.000919393, -0.0346613, 0.700257, -0.169996
857.42548127500003829, -0.0347202, -0.00110816, 0.000920374, -0.0346005, 0.699009, -0.171032
857.45879763200002799, -0.0343701, -0.00109817, 0.000916969, -0.0345476, 0.697966, -0.171871
857.49211396500004412, -0.0340816, -0.00108631, 0.000909731, -0.0345993, 0.698421, -0.171796
857.52543030799995449, -0.0337955, -0.00107859, 0.000905687, -0.0346284, 0.69894, -0.171816
857.55874666500005787, -0.0335095, -0.00106738, 0.000914323, -0.0346856, 0.699444, -0.171828
857.59206296499996824, -0.033223, -0.00106071, 0.00092915, -0.0347004, 0.699052, -0.17222
857.62537930300004518, -0.0329487, -0.00104564, 0.000940787, -0.0348015, 0.700133, -0.171839
857.658695664999982, -0.0326627, -0.00102489, 0.000950066, -0.0349611, 0.702335, -0.170918
857.69201196500000606, -0.0323736, -0.00101166, 0.000958088, -0.0350843, 0.70417, -0.170176
857.72532826999997724, -0.0321203, -0.00101316, 0.000965907, -0.0350949, 0.704304, -0.170226
857.75879466499998216, -0.0318759, -0.00101301, 0.000954603, -0.0351224, 0.704642, -0.170282
857.79211099799999829, -0.0315592, -0.00101428, 0.000943807, -0.0351358, 0.704733, -0.170554
857.82542729800002235, -0.031179, -0.00101644, 0.000935329, -0.0351519, 0.704915, -0.170834
857.8587436320000279, -0.0308522, -0.00101625, 0.000932953, -0.035164, 0.7051, -0.171026
857.89205996500004403, -0.030602, -0.00101582, 0.000936429, -0.0352068, 0.705863, -0.170774
857.92537629800006016, -0.0303657, -0.00101211, 0.000938834, -0.0352945, 0.70752, -0.170149
857.95869263200006571, -0.0302143, -0.000996976, 0.000946519, -0.0354749, 0.711104, -0.168616
857.99200896499996816, -0.0300495, -0.000989927, 0.000951602, -0.0355749, 0.71313, -0.167807
858.02532529799998429, -0.0298392, -0.000992143, 0.000956387, -0.0355456, 0.712878, -0.168023
858.05864163199998984, -0.0295832, -0.000992796, 0.000956416, -0.0355425, 0.713122, -0.168159
858.0921080030000212, -0.0293265, -0.000994513, 0.000950378, -0.0355811, 0.713789, -0.168177
858.12542433199996594, -0.0290399, -0.000998332, 0.000946949, -0.0356508, 0.714844, -0.167903
858.15874072700000852, -0.0287673, -0.00099678, 0.000943972, -0.0357315, 0.716432, -0.167481
858.1920569979999982, -0.0285758, -0.000988121, 0.000952431, -0.0358003, 0.718541, -0.166671
858.22537330299996938, -0.0283732, -0.000976561, 0.000956343, -0.0359017, 0.721297, -0.165755
858.25868966500001989, -0.0281336, -0.000968784, 0.000957727, -0.0359462, 0.723073, -0.165369
858.29200599800003602, -0.0278927, -0.000965376, 0.000959439, -0.0359377, 0.723834, -0.165347
858.32532229800006007, -0.027667, -0.000961698, 0.000960958, -0.0358982, 0.72428, -0.165555
858.35863863200006563, -0.0274306, -0.000966457, 0.000963251, -0.0358017, 0.723205, -0.166234
858.39195497000002888, -0.0271884, -0.000969091, 0.000959655, -0.0357971, 0.723373, -0.16653
858.42527130300004501, -0.0268902, -0.000965285, 0.000951743, -0.0358707, 0.725277, -0.166362
858.45873766500005786, -0.0265395, -0.000961515, 0.000939525, -0.0359638, 0.727435, -0.16623
858.4920539979999603, -0.0262491, -0.000953963, 0.00092488, -0.0360347, 0.729431, -0.166274
858.52537030300004517, -0.0260447, -0.000953139, 0.000915268, -0.0360696, 0.730007, -0.166584
858.55868663100000049, -0.0258432, -0.000959816, 0.000907456, -0.0361098, 0.729886, -0.166824
858.59200299799999812, -0.025593, -0.000968003, 0.000906776, -0.0361086, 0.729439, -0.166944
858.62531933100001424, -0.0252957, -0.000978708, 0.000906966, -0.0361071, 0.728853, -0.166985
858.65863563599998542, -0.0249884, -0.000984325, 0.000905197, -0.036132, 0.729175, -0.166788
858.69195196500004386, -0.0246432, -0.000989293, 0.000900979, -0.0361261, 0.729351, -0.166905
858.72526833100005206, -0.0243715, -0.000986965, 0.000910077, -0.0361044, 0.730678, -0.166295
858.75858463600002324, -0.0241187, -0.00097768, 0.000915814, -0.0361168, 0.733249, -0.165448
858.79205099800003609, -0.0238488, -0.000968552, 0.000917396, -0.0361183, 0.735701, -0.164957
858.82536733100005222, -0.023594, -0.000963485, 0.000918813, -0.0361194, 0.737532, -0.164482
858.85868363099996259, -0.0233633, -0.000956934, 0.00092029, -0.0361518, 0.739775, -0.163732
858.89199999799996021, -0.0231089, -0.00095523, 0.000915976, -0.0361684, 0.741157, -0.163571
858.92531627000005301, -0.0228939, -0.000962097, 0.000907728, -0.0361484, 0.740782, -0.164142
858.95863263600006121, -0.0226809, -0.000964783, 0.000893789, -0.0361873, 0.74144, -0.16459
858.99194899799999803, -0.0224469, -0.000965675, 0.000884755, -0.036257, 0.74285, -0.164416
859.02526527400004852, -0.0222751, -0.000956338, 0.000882282, -0.0364011, 0.746441, -0.163196
859.05858163599998534, -0.0220687, -0.000951877, 0.000878426, -0.0365075, 0.74894, -0.162404
859.09189796500004377, -0.0218839, -0.000948979, 0.000875288, -0.0365036, 0.750027, -0.162392
859.1252142980000599, -0.021765, -0.000944813, 0.000868019, -0.0364605, 0.750839, -0.162956
859.15868063100003837, -0.0216203, -0.000942184, 0.000863921, -0.0364136, 0.751684, -0.163239
859.191996998000036, -0.0214468, -0.000945416, 0.000862788, -0.0363565, 0.751775, -0.163481
859.22531333100005213, -0.0212606, -0.000945328, 0.000850916, -0.0363858, 0.75319, -0.163761
859.25862963600002331, -0.021129, -0.000948819, 0.00083437, -0.03644, 0.753537, -0.16438
859.29194599799996013, -0.0210177, -0.000949362, 0.000817719, -0.0365419, 0.754816, -0.164595
859.32526229799998418, -0.020899, -0.000947061, 0.00080018, -0.036681, 0.757016, -0.164494
859.35857866499998181, -0.020798, -0.000942118, 0.000787099, -0.036798, 0.759481, -0.164197
859.3918972170000643, -0.0207081, -0.000940869, 0.000786123, -0.0368799, 0.761081, -0.163285
859.425211298000022, -0.0206147, -0.000936929, 0.000779374, -0.0369641, 0.762773, -0.162762
859.45852763100003813, -0.0205221, -0.000937202, 0.000772418, -0.0369539, 0.762799, -0.162976
859.4919939979999981, -0.0204406, -0.000942829, 0.000766205, -0.0369253, 0.762066, -0.163316
859.52531033100001423, -0.0203236, -0.000947768, 0.000764301, -0.0369416, 0.762186, -0.162901
859.55862663599998541, -0.0202039, -0.000955762, 0.000764364, -0.0369467, 0.761783, -0.16243
859.59194299800003591, -0.0200733, -0.000969126, 0.000759399, -0.0369421, 0.760556, -0.162717
859.62525933100005204, -0.019952, -0.000987838, 0.000754148, -0.0368506, 0.758379, -0.163549
859.65857565999999679, -0.0198726, -0.000999415, 0.000748716, -0.0367406, 0.757186, -0.164329
859.69189199799996004, -0.0198001, -0.000999618, 0.000749921, -0.0367269, 0.758359, -0.163907
859.72520830300004491, -0.0197181, -0.000995141, 0.000762305, -0.0368651, 0.760975, -0.162229
859.75852461199997379, -0.0196789, -0.000987817, 0.000770653, -0.0370064, 0.763847, -0.160489
859.79184096899996348, -0.0196507, -0.000984404, 0.000771939, -0.0371057, 0.765594, -0.159538
859.82515729800002191, -0.019597, -0.000990696, 0.000767532, -0.0370869, 0.764659, -0.160045
859.85862360299995544, -0.0195339, -0.000996623, 0.000760372, -0.0370629, 0.7637, -0.160795
859.89193994100003238, -0.0194659, -0.000998818, 0.000756261, -0.0372577, 0.765525, -0.159901
859.92525633100001414, -0.0193767, -0.00100621, 0.000757357, -0.0374527, 0.766781, -0.158691
859.95857263599998532, -0.0192845, -0.00102299, 0.00076939, -0.0375748, 0.766203, -0.157467
859.99188896500004375, -0.0192238, -0.0010398, 0.00077517, -0.037653, 0.765152, -0.157065
860.02520533100005196, -0.0191441, -0.00105939, 0.000787667, -0.0376718, 0.763624, -0.156602
860.05852181199998086, -0.0190818, -0.00107652, 0.000797833, -0.037751, 0.763046, -0.155944
860.09183796900003927, -0.0190224, -0.00109287, 0.000794105, -0.0378337, 0.76236, -0.156297
860.12515429799998401, -0.0189496, -0.00110647, 0.000780936, -0.0378349, 0.761257, -0.157665
860.15847063600006095, -0.0188442, -0.00111934, 0.0007676, -0.0378086, 0.760308, -0.159141
860.19193699799996011, -0.018726, -0.00112866, 0.000755412, -0.0378124, 0.760291, -0.160182
860.22525329300003705, -0.0185947, -0.00113814, 0.000752645, -0.0378103, 0.760601, -0.160471
860.2585696310000003, -0.018445, -0.00114905, 0.000746621, -0.0377787, 0.760571, -0.161034
860.29188596500000585, -0.0182886, -0.00115896, 0.000746286, -0.0378084, 0.761276, -0.160846
860.32520229800002198, -0.0181427, -0.00116667, 0.000746015, -0.0378517, 0.762211, -0.160543
860.35851863100003811, -0.0179973, -0.00117359, 0.000748486, -0.0379323, 0.763344, -0.159851
860.39183494099995642, -0.0178307, -0.00118402, 0.000746356, -0.0379622, 0.763495, -0.159885
860.4251512980000598, -0.0176726, -0.00119574, 0.00074602, -0.0379731, 0.763062, -0.159908
860.45846763099996224, -0.0175367, -0.00119784, 0.000743166, -0.0381129, 0.764827, -0.159178
860.49178396900003918, -0.0173875, -0.00120365, 0.000737728, -0.0381478, 0.764939, -0.15927
860.52525030300000708, -0.0173053, -0.00120902, 0.000737867, -0.0381585, 0.764675, -0.159199
860.5585666309999624, -0.0172105, -0.00121256, 0.000729684, -0.0381801, 0.764623, -0.15943
860.59188296499996795, -0.0171107, -0.00121446, 0.000725059, -0.0382388, 0.765325, -0.159057
860.62519933099997615, -0.017015, -0.001216, 0.000720086, -0.0382572, 0.765644, -0.159009
860.65851563100000021, -0.0169396, -0.00121129, 0.00071429, -0.0383607, 0.767515, -0.158305
860.69183196899996346, -0.0168544, -0.00120922, 0.000707537, -0.0384259, 0.768677, -0.15792
860.72514830299996902, -0.0167367, -0.00121405, 0.000703019, -0.0383813, 0.767966, -0.158087
860.7584646640000301, -0.0166139, -0.00121617, 0.000695697, -0.0384387, 0.768589, -0.157688
860.79178093600000921, -0.0165064, -0.00121537, 0.000691462, -0.0384773, 0.769441, -0.157256
860.82509729800005971, -0.0163866, -0.00122023, 0.000686381, -0.0385065, 0.769503, -0.157068
860.85841366399995422, -0.0162955, -0.00122192, 0.000684475, -0.0385784, 0.770403, -0.156488
860.89187996400005431, -0.0162109, -0.00122453, 0.000679201, -0.038618, 0.770755, -0.156374
860.92519630300000699, -0.0161103, -0.00122985, 0.000673639, -0.0386314, 0.770604, -0.156537
860.95851266399995438, -0.0159996, -0.00123754, 0.000667135, -0.0386306, 0.770048, -0.156857
860.99182896399997844, -0.0158789, -0.00124424, 0.000657777, -0.0386636, 0.770006, -0.157112
861.02514533099997607, -0.0157495, -0.00125092, 0.000648964, -0.0386767, 0.769865, -0.15743
861.0584616639999922, -0.0155949, -0.00126031, 0.000640046, -0.0386742, 0.769261, -0.157843
861.09177799799999775, -0.0154436, -0.00126961, 0.000631964, -0.0387205, 0.769142, -0.157834
861.12509429800002181, -0.0152867, -0.00128073, 0.000622385, -0.0387551, 0.768592, -0.157969
861.15841063599998506, -0.0151565, -0.00128769, 0.000608098, -0.0387912, 0.768132, -0.158329
861.19172696900000119, -0.0150338, -0.0012942, 0.000593987, -0.03885, 0.767957, -0.158481
861.22519330299996909, -0.0148978, -0.00129885, 0.000581976, -0.0389314, 0.768426, -0.158334
861.25850966400003017, -0.014804, -0.00130681, 0.000572735, -0.0389415, 0.767531, -0.158601
861.29182599800003572, -0.0147112, -0.00131654, 0.000564407, -0.0389369, 0.76624, -0.158986
861.32514229800005978, -0.014675, -0.0013169, 0.000559136, -0.0390204, 0.767008, -0.158746
861.35845899299999928, -0.0146337, -0.00131683, 0.000552602, -0.0390356, 0.767297, -0.158907
861.39177499799995985, -0.0145927, -0.00131078, 0.000549936, -0.0391634, 0.769503, -0.157942
861.42509133099997598, -0.0145563, -0.00130663, 0.000549921, -0.0392822, 0.771457, -0.15686
861.45840763100000004, -0.0145373, -0.00131242, 0.00056465, -0.0392692, 0.770972, -0.155944
861.49172396400001617, -0.0145135, -0.00131052, 0.000571747, -0.0391849, 0.770375, -0.156079
861.52504029800002172, -0.0145009, -0.00131387, 0.000563239, -0.0392268, 0.769984, -0.156602
861.55835663599998497, -0.0144787, -0.00131742, 0.000556764, -0.0391962, 0.768965, -0.157396
861.59182296899996345, -0.0144414, -0.00133426, 0.000569752, -0.0392771, 0.767678, -0.155999
861.62513933100001395, -0.0144208, -0.00135363, 0.000576635, -0.0394322, 0.766572, -0.154754
861.65845563599998513, -0.0143895, -0.00137687, 0.000580385, -0.0394477, 0.763307, -0.154681
861.69177199800003564, -0.0143498, -0.00139578, 0.000595049, -0.039505, 0.761659, -0.153427
861.72508865500003594, -0.014362, -0.00140802, 0.000593714, -0.0394821, 0.759889, -0.15396
861.75840463600002295, -0.0143576, -0.00141996, 0.000591602, -0.039355, 0.757291, -0.155103
861.79172099300001264, -0.0143579, -0.00140425, 0.00058301, -0.0393162, 0.758085, -0.155945
861.82503733099997589, -0.0143928, -0.00137937, 0.000560115, -0.0394897, 0.762135, -0.15692
861.85835363099999995, -0.0144001, -0.00137659, 0.000549394, -0.0395326, 0.762537, -0.157696
861.89166999799999758, -0.0144071, -0.00136798, 0.000547637, -0.0395525, 0.763904, -0.15763
861.92513630200005537, -0.0143838, -0.00136432, 0.000563695, -0.0394761, 0.764085, -0.15642
861.95845263600006092, -0.0143738, -0.00135927, 0.000582494, -0.0395577, 0.766202, -0.154154
861.99176900199995544, -0.0143637, -0.00135038, 0.000580734, -0.0396014, 0.767962, -0.154026
862.02508533100001387, -0.0143538, -0.00135894, 0.000595967, -0.0396152, 0.767065, -0.152766
862.05840163599998505, -0.0143648, -0.00135328, 0.000593996, -0.0397476, 0.77017, -0.151856
862.09172039800000675, -0.0143786, -0.00135071, 0.000587755, -0.0398126, 0.771324, -0.151899
862.12503430200001731, -0.0143929, -0.00134768, 0.000586459, -0.0399168, 0.774084, -0.151071
862.15835066399995412, -0.0144173, -0.00134769, 0.000572327, -0.0399023, 0.772105, -0.152563
862.19166698300000462, -0.0144266, -0.00134631, 0.000571663, -0.0398317, 0.770089, -0.153474
862.22498329799998373, -0.0144497, -0.00133999, 0.000570541, -0.0398046, 0.770172, -0.153799
862.25829966399999194, -0.014477, -0.00134501, 0.000559844, -0.0397254, 0.765394, -0.156059
862.29176599799995984, -0.0144647, -0.00133793, 0.000564915, -0.0396905, 0.766107, -0.155886
862.32508233099997597, -0.0144729, -0.00132439, 0.000557479, -0.0395879, 0.76398, -0.157527
862.35839863600006083, -0.014467, -0.00131506, 0.000556933, -0.0395523, 0.764272, -0.157745
862.39171496400001615, -0.0144523, -0.00130608, 0.000555818, -0.0395737, 0.766973, -0.156916
862.42503133100001378, -0.0144605, -0.00129702, 0.000550283, -0.0395313, 0.766295, -0.157358
862.45834760200000346, -0.0144504, -0.00129569, 0.00055769, -0.0394863, 0.76427, -0.158316
862.49166399800003546, -0.0144395, -0.00129486, 0.000566069, -0.0394987, 0.764843, -0.158462
862.52498029800005952, -0.0144679, -0.00129284, 0.000553083, -0.0394758, 0.76463, -0.157895
862.55829666400006772, -0.014459, -0.00128215, 0.000566192, -0.0395326, 0.76889, -0.15717
862.5916129690000389, -0.014452, -0.00128386, 0.000577346, -0.0395908, 0.771539, -0.156954
862.62507930200001738, -0.0144425, -0.00128478, 0.000583765, -0.0396584, 0.776396, -0.155817
862.65839566399995419, -0.0144574, -0.00128716, 0.000592491, -0.0397239, 0.781708, -0.154719
862.69171196399997825, -0.0144638, -0.00130118, 0.00059563, -0.0397172, 0.777607, -0.156371
862.72502833099997588, -0.0144955, -0.00130859, 0.000589903, -0.0396683, 0.773614, -0.157036
862.75834466399999201, -0.0145241, -0.00130968, 0.000583632, -0.039613, 0.768137, -0.157769
862.79166096899996319, -0.0145163, -0.00130459, 0.000589742, -0.0396599, 0.77272, -0.157175
862.82497733100001369, -0.0145217, -0.0013053, 0.00059107, -0.0396658, 0.775787, -0.156404
862.85829363100003775, -0.014518, -0.00129485, 0.00059156, -0.0396781, 0.779284, -0.155244
862.89160999800003538, -0.0145262, -0.00128924, 0.000582196, -0.0396446, 0.783787, -0.153152
862.9249263310000515, -0.0145215, -0.00130086, 0.000591042, -0.0396663, 0.784428, -0.153943
862.95824263099996188, -0.0145303, -0.00132059, 0.000598319, -0.0396688, 0.785737, -0.154537
862.99170896900000116, -0.0144949, -0.00131808, 0.000613, -0.0397313, 0.786799, -0.155492
863.02502530200001729, -0.0144894, -0.00130396, 0.000611824, -0.0397058, 0.794632, -0.152898
863.05834163099996204, -0.0145279, -0.00130769, 0.000601133, -0.0396232, 0.798839, -0.150663
863.09165796900003897, -0.0145705, -0.00132497, 0.000597637, -0.039566, 0.800668, -0.150006
863.1249743020000551, -0.0145542, -0.00133635, 0.000600363, -0.039642, 0.793376, -0.153372
863.15829066399999192, -0.0145332, -0.00134109, 0.000605678, -0.0396987, 0.789478, -0.155499
863.1916069689999631, -0.0145382, -0.00133158, 0.000606791, -0.0396353, 0.795021, -0.152671
863.22492330199997923, -0.0145509, -0.00132665, 0.000601381, -0.0396138, 0.796198, -0.151788
863.25823963599998478, -0.014555, -0.00133676, 0.000592718, -0.0396838, 0.790077, -0.155136
863.29155599700004586, -0.0145463, -0.00133651, 0.000596211, -0.0397026, 0.788915, -0.155815
863.32502230199997939, -0.0145341, -0.00133621, 0.000604191, -0.0396976, 0.789596, -0.155421
863.35833863100003782, -0.0145349, -0.00134297, 0.000597598, -0.039741, 0.786305, -0.157674
863.39165499700004602, -0.0145165, -0.00133719, 0.000586947, -0.0397992, 0.782195, -0.160469
863.42497133100005158, -0.0144668, -0.00133138, 0.000590527, -0.0398723, 0.776207, -0.164953
863.45828763099996195, -0.0144473, -0.00133267, 0.00059461, -0.039907, 0.772775, -0.167874
863.49160396399997808, -0.014423, -0.00132896, 0.000600422, -0.0399186, 0.770644, -0.169631
863.52492030200005502, -0.0144116, -0.00132834, 0.000602752, -0.0399177, 0.770257, -0.169936
863.55823663600006057, -0.0144246, -0.00132798, 0.000590501, -0.0399422, 0.768604, -0.172189
863.59155293599997094, -0.0144282, -0.00133041, 0.000570048, -0.039965, 0.767508, -0.174652
863.62486931600005846, -0.0144047, -0.00132631, 0.000569767, -0.0399393, 0.765823, -0.17686
863.65833563499995762, -0.0143775, -0.00131647, 0.000584516, -0.0398735, 0.765152, -0.177141
863.69165196400001605, -0.0143939, -0.00131856, 0.000575064, -0.0399467, 0.765848, -0.176367
863.72496833100001368, -0.014408, -0.0013211, 0.000562944, -0.0400185, 0.766266, -0.176241
863.75828463100003773, -0.0144288, -0.00131576, 0.000548145, -0.040143, 0.766826, -0.175902
863.79160099700004594, -0.0144425, -0.00131696, 0.000538979, -0.0401978, 0.766943, -0.176166
863.82491726900002504, -0.0144516, -0.00132114, 0.000527443, -0.0403126, 0.766858, -0.176197
863.85823366400006762, -0.014466, -0.00132565, 0.00051643, -0.0406026, 0.766147, -0.175065
863.89154999699997006, -0.0144693, -0.0013241, 0.000501288, -0.0407662, 0.765966, -0.17513
863.92486633099997562, -0.0144765, -0.00131794, 0.000480482, -0.0411583, 0.764651, -0.174638
863.95818266399999175, -0.0144747, -0.00131303, 0.000475957, -0.0413388, 0.763807, -0.174198
863.9914989640000158, -0.0144852, -0.00131931, 0.000470885, -0.0414926, 0.762613, -0.174074
864.02496530200005509, -0.0144865, -0.00131808, 0.000463503, -0.0415357, 0.762353, -0.174266
864.05828165399998397, -0.0144916, -0.00131358, 0.000451429, -0.0413691, 0.763574, -0.174842
864.09159799700000804, -0.0145041, -0.00131888, 0.000464758, -0.0414644, 0.763073, -0.174656
864.12491439300004004, -0.0145263, -0.00132089, 0.000467293, -0.0416989, 0.760896, -0.174103
864.15823063100003765, -0.014542, -0.0013269, 0.00047271, -0.0417819, 0.760393, -0.174012
864.1915469690000009, -0.0145598, -0.00133957, 0.000475818, -0.041981, 0.759125, -0.173878
864.22486330200001703, -0.0145539, -0.00132607, 0.000474774, -0.0422899, 0.755275, -0.173019
864.25817963099996177, -0.0145527, -0.00131878, 0.000473824, -0.0423747, 0.753938, -0.172679
864.29149599699996998, -0.0145604, -0.00131135, 0.000471326, -0.0424425, 0.752208, -0.171843
864.32481233099997553, -0.0145614, -0.001309, 0.000472498, -0.04253, 0.751238, -0.171854
864.35827863500003332, -0.0145801, -0.0012911, 0.00047619, -0.0427965, 0.745927, -0.170729
864.39159499699997014, -0.0145767, -0.00128639, 0.000475503, -0.0429821, 0.742728, -0.169784
864.42491136399996776, -0.0145892, -0.00127541, 0.000472773, -0.0430953, 0.738185, -0.167789
864.45822766399999182, -0.014605, -0.00126841, 0.000473271, -0.0433066, 0.733953, -0.166442
864.49154399700000795, -0.0146196, -0.00125791, 0.000470139, -0.0435141, 0.727132, -0.163637
864.52486106399999244, -0.0146114, -0.00122034, 0.000452254, -0.0433629, 0.713549, -0.155857
864.55817666400002963, -0.0146499, -0.00119664, 0.000447494, -0.043412, 0.704238, -0.151234
864.59149296900000081, -0.0146754, -0.00117986, 0.00043866, -0.0433641, 0.696922, -0.146641
864.62480929699995613, -0.014697, -0.00116609, 0.000437731, -0.0434471, 0.690382, -0.143758
864.65812563099996169, -0.0147123, -0.00116381, 0.000428737, -0.0434911, 0.684861, -0.139208
864.69144199699996989, -0.0147244, -0.00115566, 0.000422156, -0.0433535, 0.681008, -0.136
864.72490833100005148, -0.0147492, -0.00114841, 0.000407782, -0.0430637, 0.676645, -0.13057
864.75822466400006761, -0.0147621, -0.00113782, 0.000399447, -0.0429104, 0.67135, -0.126826
864.79154099699997005, -0.0147671, -0.00112442, 0.000392085, -0.0428048, 0.663919, -0.122489
864.8248573309999756, -0.0147898, -0.00111681, 0.00037742, -0.0425723, 0.657, -0.115685
864.85817366399999173, -0.0148234, -0.00110316, 0.000376392, -0.042557, 0.649782, -0.112265
864.89148999700000786, -0.0148495, -0.00109633, 0.000371167, -0.042496, 0.644178, -0.108167
864.92480629199997111, -0.0148615, -0.00109353, 0.000365877, -0.0423548, 0.642242, -0.105618
864.95812263100003747, -0.0148801, -0.00108456, 0.000362819, -0.0422549, 0.636658, -0.102495
864.9914389640000536, -0.0148992, -0.00107776, 0.000358253, -0.0423941, 0.625796, -0.0966169
865.02475533100005123, -0.0149245, -0.00107286, 0.000352859, -0.0423663, 0.618892, -0.0914173
865.0582216640000297, -0.0149401, -0.00106788, 0.000348999, -0.0423968, 0.611762, -0.0870463
865.09153796900000088, -0.0149642, -0.0010636, 0.000339665, -0.0420568, 0.608806, -0.0819478
865.12485477300003822, -0.0149751, -0.00106129, 0.000334248, -0.0418754, 0.60675, -0.0789156
865.15817063099996176, -0.0150016, -0.00106163, 0.000328122, -0.0417579, 0.60275, -0.0738633
865.1914869350000572, -0.0150367, -0.00105584, 0.000327411, -0.0417205, 0.595165, -0.0693061
865.22480332999998609, -0.0150494, -0.00105044, 0.000325699, -0.0416674, 0.58949, -0.0660873
865.25811966399999164, -0.0150533, -0.00104304, 0.000326538, -0.0416916, 0.584257, -0.0650647
865.29143599700000777, -0.0150755, -0.00103561, 0.000322505, -0.0415428, 0.575603, -0.0597037
865.3247523300000239, -0.0150845, -0.00102879, 0.000321895, -0.0415372, 0.567225, -0.0558565
865.35806865899996865, -0.0151074, -0.00102545, 0.000324236, -0.0416385, 0.561117, -0.0538153
865.39138496900000064, -0.0151404, -0.00102158, 0.000319255, -0.0415467, 0.550451, -0.046296
865.42485129700003199, -0.0151606, -0.00102096, 0.000319027, -0.0415335, 0.545437, -0.042898
865.45816766400002962, -0.0151727, -0.00102156, 0.000317783, -0.0414697, 0.545135, -0.0416996
865.4914839690000008, -0.0151771, -0.00102217, 0.000311997, -0.0412114, 0.545327, -0.0382866
865.52480029699995612, -0.0152181, -0.00101528, 0.000314374, -0.0411289, 0.536184, -0.0345332
865.55811663500003306, -0.0152407, -0.00101566, 0.000317003, -0.0413563, 0.525957, -0.0309164
865.59143299699996987, -0.0152589, -0.00100802, 0.000320843, -0.0415053, 0.512254, -0.0276656
865.62474930200005474, -0.0152727, -0.0010056, 0.000320667, -0.0414724, 0.508468, -0.025919
865.65806566399999156, -0.0153087, -0.000996683, 0.000323148, -0.0413911, 0.503481, -0.0253155
865.69138199700000769, -0.0153452, -0.000996884, 0.000328206, -0.0415893, 0.494676, -0.0224956
865.72469830199997887, -0.0153532, -0.00100024, 0.000326314, -0.0415848, 0.489972, -0.0181549
865.75816466399999172, -0.0153769, -0.000998963, 0.000322822, -0.0413122, 0.487597, -0.0131761
865.7914809349999814, -0.0153844, -0.00099722, 0.000321169, -0.0412175, 0.484948, -0.0102179
865.8247972970000319, -0.0153928, -0.000993519, 0.000322063, -0.0412022, 0.477418, -0.00740999
865.85811366400002953, -0.0154351, -0.000989834, 0.000332247, -0.0416742, 0.466454, -0.00626449
865.89142996800001129, -0.0154792, -0.000987021, 0.000340548, -0.0420707, 0.456319, -0.00472759
865.92474630200001684, -0.0154849, -0.000985573, 0.000340723, -0.0420956, 0.455775, -0.00340868
865.95806263500003297, -0.0154664, -0.000982834, 0.000329739, -0.0412343, 0.457865, 0.00512747
865.99137899699996979, -0.0154907, -0.000981665, 0.000330801, -0.0411923, 0.450531, 0.00801211
866.02469530200005465, -0.0154886, -0.000981916, 0.000326289, -0.0411136, 0.447156, 0.0100514
866.0580116349999571, -0.0154779, -0.000984758, 0.000326506, -0.0414434, 0.445453, 0.00990496
866.0913279970000076, -0.0154687, -0.000995098, 0.000339958, -0.0425838, 0.430706, 0.00703901
866.12479430200005481, -0.0154574, -0.00100287, 0.000342361, -0.0430009, 0.421322, 0.00770344
866.15811063499995726, -0.0154718, -0.00100358, 0.000341518, -0.042964, 0.419005, 0.00958898
866.19142696400001569, -0.0154974, -0.00100138, 0.000338802, -0.0426958, 0.415004, 0.0123875
866.22474333000002389, -0.0154892, -0.00100045, 0.000335885, -0.0425651, 0.410886, 0.0130844
866.25805963000004795, -0.0154867, -0.000997069, 0.000330326, -0.0423049, 0.40698, 0.0151194
866.29137599700004557, -0.015529, -0.0009976, 0.000328945, -0.0420934, 0.402901, 0.0195841
866.3246923300000617, -0.0155773, -0.000998896, 0.000328991, -0.0418895, 0.402899, 0.024144
866.35800866400006726, -0.0156066, -0.000997387, 0.000326769, -0.041572, 0.403811, 0.0282622
866.39132494000000406, -0.015639, -0.000997028, 0.000324709, -0.0412795, 0.403658, 0.0324834
866.42464132999998583, -0.0156791, -0.000995656, 0.000320557, -0.0407844, 0.403727, 0.0393003
866.4581082490000199, -0.0157377, -0.000992929, 0.000318544, -0.0403723, 0.401194, 0.0447185
866.49142399200002274, -0.015785, -0.000991215, 0.000318101, -0.0401738, 0.398, 0.0486351
866.52474032999998599, -0.0158317, -0.000989113, 0.00031572, -0.0398079, 0.396372, 0.0532709
866.55805666399999154, -0.0158841, -0.000985447, 0.000314383, -0.0394556, 0.394023, 0.058098
866.5913729679999733, -0.0159415, -0.000982475, 0.000317341, -0.0393684, 0.389746, 0.0615555
866.6246893300000238, -0.0159756, -0.000979103, 0.000315373, -0.0391272, 0.387099, 0.0639136
866.65800560599996061, -0.0160064, -0.000975344, 0.000314899, -0.03894, 0.384613, 0.0655509
866.69132199700004549, -0.0160313, -0.000972313, 0.000316411, -0.0388704, 0.384611, 0.0665183
866.72463833000006161, -0.0160597, -0.000964837, 0.000310548, -0.0381993, 0.387267, 0.0709134
866.75795464899999843, -0.0160008, -0.000958651, 0.000292934, -0.0375365, 0.380328, 0.0750468
866.79142096800001127, -0.0159911, -0.00095859, 0.000295872, -0.0377795, 0.380207, 0.0733937
866.82473733000006177, -0.0160123, -0.000960396, 0.000298959, -0.0380333, 0.376272, 0.0740365
866.85805367800003296, -0.0160309, -0.000959293, 0.000299798, -0.0380257, 0.375059, 0.0748264
866.8913699639999777, -0.0160439, -0.000958552, 0.00029639, -0.0377324, 0.374395, 0.0775895
866.92468964900001538, -0.0160175, -0.000959175, 0.000290696, -0.0373249, 0.377252, 0.0784257
866.95800266399999146, -0.0160152, -0.000959512, 0.00028969, -0.0372929, 0.377332, 0.0783096
866.99131896400001551, -0.0160217, -0.000959447, 0.000289397, -0.0372553, 0.376792, 0.0789916
867.02463533000002371, -0.016054, -0.000958777, 0.000287266, -0.0370287, 0.373653, 0.0825313
867.0579516400000557, -0.0160779, -0.000957266, 0.000280802, -0.0365257, 0.371634, 0.0875024
867.09126796400005333, -0.0160554, -0.000956483, 0.000278413, -0.0363653, 0.375168, 0.0865495
867.12458479200006423, -0.0160375, -0.000955957, 0.000277121, -0.0362882, 0.378475, 0.0858255
867.15805094400002417, -0.0160319, -0.000954876, 0.000276194, -0.0362065, 0.379766, 0.0856123
867.19136696400005349, -0.0160281, -0.000955241, 0.000277227, -0.0362303, 0.381054, 0.0853544
867.22468333000006169, -0.0160302, -0.000958321, 0.000279467, -0.0364148, 0.380336, 0.0862653
867.25799963500003287, -0.0160231, -0.000963293, 0.000281161, -0.0364982, 0.380176, 0.087647
867.29131596399997761, -0.0160151, -0.000965305, 0.000281011, -0.0364418, 0.381122, 0.0890864
867.32463232999998581, -0.0160141, -0.000964245, 0.000279519, -0.0362973, 0.384648, 0.0905841
867.35794866399999137, -0.0160222, -0.000959602, 0.000276935, -0.0360629, 0.386413, 0.0910193
867.39126496400001542, -0.0160193, -0.000958972, 0.000274856, -0.0358966, 0.388081, 0.092621
867.42458177299999988, -0.0160116, -0.000958936, 0.000271854, -0.0356349, 0.390768, 0.0959486
867.45789766300003976, -0.0160126, -0.000960846, 0.000271831, -0.0356931, 0.390069, 0.0971767
867.49136394900006053, -0.0160195, -0.000963861, 0.000272027, -0.035732, 0.387574, 0.099352
867.52468033000002379, -0.0160309, -0.000964675, 0.000273334, -0.0357494, 0.386649, 0.0997138
867.55799666300003992, -0.0160389, -0.000960993, 0.000269859, -0.0353157, 0.388793, 0.102452
867.5913129680000111, -0.0160394, -0.000958448, 0.000264894, -0.0347633, 0.392531, 0.107754
867.62462930200001665, -0.0160449, -0.00095669, 0.000263723, -0.0345189, 0.39512, 0.110209
867.65794566299996404, -0.0160475, -0.000955849, 0.000263924, -0.0344584, 0.397814, 0.110826
867.6912619629999881, -0.0160474, -0.000954443, 0.000263188, -0.0342479, 0.400065, 0.112837
867.72457832999998573, -0.0160414, -0.000957486, 0.000265482, -0.0343102, 0.400699, 0.11452
867.75789463499995691, -0.0160388, -0.000960688, 0.000268756, -0.0344493, 0.401828, 0.115438
867.79121099700000741, -0.0160381, -0.000961477, 0.000269863, -0.0345018, 0.403248, 0.115362
867.82452733000002354, -0.0160357, -0.000959643, 0.000268982, -0.0345166, 0.404976, 0.114077
867.857993949000047, -0.0160326, -0.000956192, 0.000267771, -0.0343667, 0.409631, 0.114212
867.89130996300002607, -0.0160202, -0.000956603, 0.000266008, -0.0341824, 0.410805, 0.116186
867.92462629700003163, -0.0160095, -0.000955169, 0.000261848, -0.0340061, 0.410466, 0.116895
867.95794263000004776, -0.0159952, -0.000953866, 0.00026169, -0.0338842, 0.414099, 0.118987
867.99125896300006389, -0.0159854, -0.000953733, 0.000263966, -0.0338595, 0.415509, 0.120804
868.02457530200001656, -0.0159733, -0.000954101, 0.000266231, -0.0339332, 0.417319, 0.121164
868.05789165900000626, -0.0159718, -0.000953557, 0.000268603, -0.0340901, 0.418126, 0.120447
868.09120799699996951, -0.0159944, -0.000953414, 0.000268466, -0.0340879, 0.416845, 0.120028
868.12452432999998564, -0.0160103, -0.000952799, 0.000270572, -0.0340458, 0.418913, 0.120587
868.1578406300000097, -0.016011, -0.000952143, 0.000272493, -0.0340711, 0.421595, 0.120457
868.19130699699996967, -0.0160103, -0.000951471, 0.000274773, -0.0341039, 0.423279, 0.120638
868.22462419199996475, -0.0160161, -0.000951931, 0.000276832, -0.0342548, 0.421627, 0.120972
868.25793966300000193, -0.0160177, -0.000951338, 0.000277189, -0.0343301, 0.422182, 0.120326
868.29125596300002599, -0.0160155, -0.000949337, 0.000275155, -0.0342903, 0.423098, 0.119071
868.32457233000002361, -0.0160204, -0.000949006, 0.000274047, -0.034039, 0.423595, 0.121427
868.35788863499999479, -0.0160177, -0.000947617, 0.000272765, -0.0338799, 0.42476, 0.122467
868.3912049630000638, -0.0160107, -0.000946761, 0.000272874, -0.0339822, 0.425486, 0.121528
868.42452133000006143, -0.0160106, -0.000946357, 0.000271826, -0.0339763, 0.426104, 0.121433
868.45783763500003261, -0.0160172, -0.000945508, 0.000271087, -0.0339357, 0.427129, 0.121528
868.49115393500005666, -0.0160116, -0.000944155, 0.000270223, -0.0338742, 0.428747, 0.120827
868.52447032999998555, -0.0160174, -0.000944539, 0.000270651, -0.0338699, 0.428419, 0.121023
868.55793666299996403, -0.016018, -0.00094341, 0.000271056, -0.0337981, 0.42926, 0.122072
868.59125300100004097, -0.0160174, -0.000941061, 0.000273662, -0.0338266, 0.431082, 0.122332
868.62456932999998571, -0.0160218, -0.000940344, 0.000275592, -0.0337881, 0.432469, 0.122712
868.65788566300000184, -0.016026, -0.000940407, 0.000276432, -0.0337143, 0.432995, 0.123395
868.69120193499998095, -0.0160264, -0.000939833, 0.000276259, -0.0336932, 0.433799, 0.123344
868.72451833000002352, -0.0160269, -0.000939852, 0.000276508, -0.0336941, 0.434755, 0.12335
868.75783463499999471, -0.0160188, -0.000937934, 0.000275473, -0.0337338, 0.436701, 0.122444
868.79115099700004521, -0.0160093, -0.0009368, 0.000273971, -0.0337573, 0.438692, 0.121156
868.82446733000006134, -0.0159987, -0.000934467, 0.000272466, -0.0336786, 0.440717, 0.120177
868.85778366299996378, -0.0159926, -0.000932466, 0.000272652, -0.0337195, 0.441961, 0.120064
868.89124996300006387, -0.0159843, -0.000931644, 0.000272581, -0.0338576, 0.443497, 0.119084
868.92456629699995574, -0.0159919, -0.000932012, 0.000274575, -0.0337767, 0.443461, 0.120467
868.95788266299996394, -0.0160042, -0.000932818, 0.000276272, -0.0336911, 0.442828, 0.121436
868.99119896800004881, -0.0160148, -0.000928926, 0.000276042, -0.0334289, 0.446397, 0.121483
869.02451529699999355, -0.0160243, -0.000928614, 0.000277331, -0.0332514, 0.447074, 0.123164
869.0578316349999568, -0.0160244, -0.000928063, 0.000277269, -0.0332335, 0.447578, 0.123124
869.09114797799998087, -0.0160243, -0.000925492, 0.0002775, -0.0331971, 0.449485, 0.122934
869.12446430099998906, -0.0160234, -0.000923657, 0.000276886, -0.033198, 0.450842, 0.122542
869.15778066300003957, -0.0160206, -0.000921115, 0.000276234, -0.0332393, 0.452574, 0.122161
869.19109696800001075, -0.0160252, -0.000919483, 0.000275967, -0.0331965, 0.453796, 0.122299
869.22441330100002688, -0.0160251, -0.000920879, 0.000273167, -0.0330687, 0.452755, 0.122025
869.25787966300003973, -0.0160163, -0.000923142, 0.000270529, -0.0331093, 0.45145, 0.121274
869.29119595800000297, -0.0160156, -0.000924556, 0.000267626, -0.0330477, 0.450426, 0.120836
869.32451233000006141, -0.0160255, -0.000920822, 0.000267624, -0.0329415, 0.452082, 0.121549
869.35782866299996385, -0.0160398, -0.000918429, 0.000269131, -0.0329215, 0.452894, 0.12186
869.39114499699996941, -0.0160474, -0.0009149, 0.000268027, -0.032932, 0.454823, 0.12091
869.42446132999998554, -0.0160515, -0.000913687, 0.000268185, -0.0329206, 0.455575, 0.120825
869.45777766300000167, -0.0160572, -0.000911853, 0.000270447, -0.0329243, 0.456535, 0.121202
869.49109399700000722, -0.0160685, -0.000908092, 0.000276372, -0.0330535, 0.459118, 0.122297
869.52441033000002335, -0.0160936, -0.000903815, 0.000283844, -0.032947, 0.460985, 0.124563
869.55772666300003948, -0.0161028, -0.000900816, 0.000285732, -0.0329013, 0.462324, 0.124763
869.59119299700000738, -0.0161122, -0.000897853, 0.000289692, -0.0328688, 0.463766, 0.126145
869.6245093249999627, -0.0161327, -0.000888365, 0.000298184, -0.0330487, 0.468193, 0.126925
869.65782563499999469, -0.0161322, -0.000884535, 0.000302484, -0.0334233, 0.470277, 0.126481
869.6911419630000637, -0.0161374, -0.000882026, 0.000303072, -0.033501, 0.471451, 0.125545
869.72445829599996614, -0.0161448, -0.000879149, 0.000303717, -0.0334045, 0.472723, 0.125845
869.75777462999997169, -0.016152, -0.00087338, 0.000305395, -0.0334534, 0.47506, 0.125758
869.79109096800004863, -0.0161653, -0.000866747, 0.0003067, -0.033436, 0.477728, 0.125294
869.82440730100006476, -0.0161715, -0.000862947, 0.000308037, -0.033486, 0.47958, 0.124873
869.85772366300000158, -0.0161821, -0.000859154, 0.000309753, -0.0335597, 0.481358, 0.124842
869.89103999600001771, -0.0161854, -0.000855623, 0.000309716, -0.0337336, 0.483078, 0.123734
869.92450632999998561, -0.0161959, -0.000851296, 0.000310447, -0.0338252, 0.484654, 0.122856
869.95782263000000967, -0.0162094, -0.000844586, 0.000311474, -0.0337561, 0.487343, 0.122569
869.99113899600001787, -0.0162168, -0.000836828, 0.000311906, -0.0338098, 0.490524, 0.122033
870.02445470099996783, -0.0162384, -0.000831343, 0.000316561, -0.0337917, 0.492515, 0.12282
870.05776976799995737, -0.0162571, -0.000823416, 0.000323808, -0.0337283, 0.495593, 0.124641
870.09108484000000772, -0.0162739, -0.000820732, 0.000329758, -0.0335861, 0.496469, 0.126502
870.12439997399997083, -0.0162937, -0.000815804, 0.000333275, -0.0334476, 0.497954, 0.127372
870.15771510299998681, -0.0163203, -0.000803597, 0.000342707, -0.0333407, 0.502109, 0.129424
870.19103020399995785, -0.0163447, -0.000796002, 0.000348147, -0.0333481, 0.504925, 0.12992
870.22434530500004257, -0.0163683, -0.000789426, 0.000353308, -0.0332575, 0.507005, 0.130979
870.25766037200003211, -0.0163898, -0.000783565, 0.000355738, -0.0330846, 0.508385, 0.131439
870.29112547199997607, -0.0164132, -0.00077668, 0.000360542, -0.0329037, 0.510613, 0.132517
870.32444060099999206, -0.01644, -0.000770329, 0.000366005, -0.0328077, 0.512755, 0.1336
870.3577556679999816, -0.0164682, -0.000762307, 0.000371544, -0.0325624, 0.515052, 0.134967
870.39107080200005839, -0.0165039, -0.000751977, 0.00037615, -0.0322415, 0.518019, 0.13632
870.42438587399999506, -0.0165457, -0.000740506, 0.000383152, -0.0318796, 0.520774, 0.138325
870.45770100400000047, -0.0165728, -0.000733861, 0.000388292, -0.0315531, 0.522484, 0.139999
870.49101607600005082, -0.0165811, -0.000730685, 0.000388454, -0.0314869, 0.523582, 0.140007
870.5243312050000668, -0.0165909, -0.000727081, 0.000391719, -0.0315095, 0.525125, 0.140765
870.55764624799996909, -0.0166099, -0.000719361, 0.000398402, -0.0314414, 0.52795, 0.141983
870.59096140600001945, -0.0166307, -0.000713137, 0.000403987, -0.0313785, 0.530212, 0.142909
870.62442643899998984, -0.0166373, -0.000711992, 0.000405047, -0.0314274, 0.53064, 0.142971
870.65774160199998732, -0.0166504, -0.00071072, 0.000406467, -0.0314162, 0.531219, 0.143132
870.69105666899997686, -0.0166638, -0.000708703, 0.000409563, -0.0312935, 0.531928, 0.144128
870.72437177400001929, -0.0166767, -0.000707995, 0.000413601, -0.0311605, 0.532309, 0.145593
870.7576869040000247, -0.0166848, -0.00070601, 0.000413149, -0.0310269, 0.533163, 0.145594
870.79100200400000631, -0.0166791, -0.000708224, 0.000410666, -0.0310129, 0.532781, 0.145212
870.82431710499997735, -0.0166747, -0.000708367, 0.000410176, -0.0310584, 0.532981, 0.144737
870.85763220499995896, -0.0166801, -0.000703479, 0.000415741, -0.0310346, 0.534568, 0.145756
870.89094727799999873, -0.0166903, -0.000700416, 0.000420655, -0.0310358, 0.535479, 0.14642
870.92426237300003322, -0.016706, -0.000696552, 0.000427016, -0.0311333, 0.536541, 0.147175
870.95757747900006507, -0.0167185, -0.000689321, 0.000430952, -0.0311098, 0.538005, 0.147275
870.9910425740000619, -0.0167239, -0.000688588, 0.000429649, -0.0310481, 0.538408, 0.147003
871.02435844900003303, -0.016731, -0.000685831, 0.000429414, -0.0309779, 0.539491, 0.1466
871.05767474100002801, -0.01675, -0.000679526, 0.000435038, -0.0308531, 0.541453, 0.147356
871.09099107899999126, -0.0167518, -0.000677229, 0.000438417, -0.0307545, 0.541737, 0.148691
871.12430744100004176, -0.0167573, -0.000676029, 0.000440821, -0.0307816, 0.542147, 0.149253
871.15762377400005789, -0.0167551, -0.000676208, 0.000440435, -0.0306766, 0.542484, 0.149565
871.19094007399996826, -0.01675, -0.000674315, 0.000440593, -0.0305868, 0.543227, 0.14986
871.2242564120000452, -0.0167551, -0.000670659, 0.000443918, -0.0305378, 0.544587, 0.150626
871.25757277399998202, -0.0167629, -0.00067234, 0.000446862, -0.030349, 0.544383, 0.152278
871.2908890449999717, -0.0167716, -0.000673194, 0.000451654, -0.0304062, 0.544076, 0.153452
871.32435540699998455, -0.0167114, -0.00067827, 0.000439728, -0.0304786, 0.542275, 0.151473
871.35767177399998218, -0.0167075, -0.000677757, 0.000440818, -0.0303076, 0.543086, 0.15266
871.39098810699999831, -0.0167071, -0.000678192, 0.000440327, -0.0303098, 0.543174, 0.152844
871.4243044170000303, -0.0167162, -0.00067658, 0.000442092, -0.0303389, 0.543522, 0.15276
871.45762074100002792, -0.0167251, -0.000673646, 0.000445611, -0.030411, 0.544274, 0.153017
871.49093707400004405, -0.0167302, -0.000671106, 0.000448059, -0.0303666, 0.545216, 0.153734
871.52425344499999937, -0.0167371, -0.000668034, 0.000452715, -0.0304246, 0.546504, 0.154703
871.55756974100006573, -0.0167455, -0.000665412, 0.000455206, -0.0306113, 0.5469, 0.15456
871.59088610699996025, -0.016758, -0.000662011, 0.000457668, -0.0306635, 0.547305, 0.154604
871.62420240699998431, -0.0167627, -0.000657023, 0.000461252, -0.0307526, 0.548806, 0.155101
871.65751907399999254, -0.0167797, -0.000654049, 0.000466376, -0.0306016, 0.550179, 0.156411
871.69098510699996041, -0.0167886, -0.000654968, 0.000466208, -0.0305866, 0.550474, 0.156572
871.72430140699998447, -0.0168007, -0.000651099, 0.000470953, -0.0304941, 0.551689, 0.157641
871.75761771199995565, -0.0168115, -0.000648128, 0.000474027, -0.030454, 0.552437, 0.15788
871.79093407900006696, -0.0168307, -0.000647313, 0.000478439, -0.0303656, 0.552152, 0.159449
871.82425040700002228, -0.0168349, -0.000647554, 0.000479106, -0.0303629, 0.551952, 0.159658
871.85756674100002783, -0.0168488, -0.000646516, 0.000482876, -0.0301503, 0.552839, 0.160975
871.89088310700003603, -0.0168514, -0.000649085, 0.000482225, -0.0300705, 0.552411, 0.161063
871.92419944100004159, -0.0168638, -0.000648184, 0.00048474, -0.0300161, 0.552809, 0.161546
871.95751573999996253, -0.0168925, -0.000642793, 0.000494852, -0.0298588, 0.554399, 0.163541
871.99083210699996016, -0.0169091, -0.000642961, 0.000499973, -0.0297548, 0.554079, 0.165089
872.024298382999973, -0.0169231, -0.00064413, 0.000502663, -0.029684, 0.553756, 0.166008
872.05761471699997855, -0.0169319, -0.000647202, 0.000502446, -0.0294386, 0.553911, 0.166634
872.09093110699996032, -0.0169276, -0.000651421, 0.000499811, -0.0293638, 0.553141, 0.166665
872.12424743999997645, -0.0169307, -0.000653957, 0.00049945, -0.0293197, 0.552447, 0.166971
872.15756371199995556, -0.0169333, -0.000655042, 0.000498787, -0.0292795, 0.55211, 0.166978
872.19088010699999813, -0.0169509, -0.000655123, 0.000502152, -0.0291889, 0.552481, 0.167767
872.22419641199996931, -0.0169301, -0.00065933, 0.000501499, -0.0293119, 0.551865, 0.167822
872.25751334000005954, -0.0169141, -0.000663072, 0.00050281, -0.0294683, 0.551201, 0.168177
872.29082907400004387, -0.0169078, -0.000665787, 0.000503643, -0.029558, 0.550838, 0.168522
872.32414541200000713, -0.0169226, -0.000668181, 0.000510701, -0.0295878, 0.551162, 0.169771
872.35746173999996245, -0.0169306, -0.000670324, 0.000516636, -0.0296926, 0.551273, 0.171072
872.39092807400004403, -0.0169247, -0.00067562, 0.000517009, -0.0298643, 0.549822, 0.171478
872.42424444000005224, -0.0169239, -0.000676339, 0.000516567, -0.0298418, 0.54955, 0.171586
872.45756071200003134, -0.0169188, -0.000675862, 0.000516299, -0.029829, 0.549871, 0.171361
872.49087710699996023, -0.0169223, -0.000675518, 0.00051893, -0.0298065, 0.550606, 0.171776
872.52419340699998429, -0.0169398, -0.000674248, 0.000521577, -0.0300202, 0.55016, 0.171536
872.55750977399998192, -0.0169555, -0.000675899, 0.000524154, -0.0300815, 0.550163, 0.172098
872.59082607400000597, -0.0169511, -0.000675161, 0.000522666, -0.0299807, 0.550251, 0.17191
872.62414244000001418, -0.0169398, -0.000676818, 0.000521568, -0.029834, 0.550563, 0.172096
872.65745877400001973, -0.0169413, -0.000676874, 0.000523628, -0.0296792, 0.551471, 0.172576
872.69077510700003586, -0.0169438, -0.000678297, 0.000524943, -0.029665, 0.551453, 0.173289
872.72424141199996939, -0.0169407, -0.000678665, 0.000523763, -0.029858, 0.550582, 0.173108
872.75755771700005425, -0.0169552, -0.000678039, 0.000526394, -0.0297066, 0.55123, 0.173646
872.79087410700003602, -0.0169635, -0.00067596, 0.000527267, -0.0296277, 0.552037, 0.17343
872.82419044000005215, -0.016958, -0.000677923, 0.000528347, -0.029615, 0.552306, 0.173913
872.85750671699997838, -0.0169672, -0.000677387, 0.000532589, -0.0296674, 0.552769, 0.174358
872.89082310699996015, -0.0169786, -0.000677385, 0.000538769, -0.0296636, 0.55368, 0.175103
872.92413943999997628, -0.0169838, -0.000677879, 0.000540711, -0.0296088, 0.553908, 0.175764
872.95745574000000033, -0.0169869, -0.000679078, 0.000541748, -0.0295751, 0.554083, 0.176442
872.99077210699999796, -0.0169973, -0.000680845, 0.000543858, -0.029439, 0.554405, 0.177864
873.02408841199996914, -0.0170064, -0.000680765, 0.0005449, -0.0294572, 0.554798, 0.178351
873.0575547450000613, -0.0170122, -0.000681261, 0.000547063, -0.0293329, 0.555963, 0.179205
873.09087110699999812, -0.0170145, -0.000683018, 0.000546999, -0.0290607, 0.556405, 0.180082
873.1241874119999693, -0.0170191, -0.000682118, 0.000548335, -0.0291093, 0.556866, 0.180309
873.15750374000003831, -0.0170257, -0.000682663, 0.00055056, -0.0291317, 0.557035, 0.180503
873.19082007800000156, -0.0170287, -0.000682816, 0.000552346, -0.0291667, 0.557231, 0.180572
873.22413641200000711, -0.017032, -0.000686236, 0.000554941, -0.0291513, 0.55784, 0.181691
873.25745277400005762, -0.0170266, -0.000686988, 0.000550186, -0.0291615, 0.557179, 0.181949
873.29076907800003937, -0.0170261, -0.000686055, 0.000550545, -0.0290147, 0.557512, 0.181615
873.32408543999997619, -0.0170302, -0.000683828, 0.000553509, -0.0288878, 0.558424, 0.180932
873.35740177399998174, -0.0170334, -0.000683524, 0.000554392, -0.0288691, 0.558768, 0.180751
873.39071810699999787, -0.0170393, -0.000686193, 0.000555338, -0.0288886, 0.5593, 0.181615
873.42418443999997635, -0.0170382, -0.000688157, 0.000557358, -0.0289184, 0.559427, 0.182752
873.45750074500006122, -0.0170372, -0.000690101, 0.000560768, -0.0288361, 0.560398, 0.183596
873.49081858299996384, -0.0170339, -0.000691716, 0.000560613, -0.0288323, 0.560346, 0.184181
873.52413341199996921, -0.0170352, -0.000694375, 0.000558884, -0.0287274, 0.560134, 0.185462
873.55744974000003822, -0.017059, -0.0006995, 0.000561658, -0.0287628, 0.560731, 0.187015
873.59076610700003584, -0.0170599, -0.000699695, 0.000561765, -0.0287803, 0.560816, 0.186921
873.6240824070000599, -0.0170388, -0.000700146, 0.000558067, -0.0288113, 0.560343, 0.186585
873.65739873999996234, -0.0170454, -0.000702835, 0.000559592, -0.0288201, 0.560695, 0.187292
873.69071510699995997, -0.0170421, -0.000704956, 0.000559216, -0.0288664, 0.560773, 0.187966
873.7240314399999761, -0.0170435, -0.000704834, 0.000560472, -0.0289051, 0.560932, 0.187839
873.75749771200003124, -0.0170468, -0.000704255, 0.000562229, -0.028948, 0.561213, 0.187837
873.79081407399996806, -0.017047, -0.000703892, 0.00056505, -0.0290571, 0.561898, 0.188106
873.824130412000045, -0.0170293, -0.000702614, 0.000561747, -0.0289021, 0.561235, 0.187576
873.85744673099998181, -0.017022, -0.000702284, 0.000559658, -0.0286845, 0.561053, 0.187734
873.89076307400000587, -0.0170215, -0.000702721, 0.000560556, -0.0286637, 0.561616, 0.188093
873.92407941199996912, -0.0170231, -0.000702033, 0.000562104, -0.0287325, 0.561963, 0.188101
873.95739574499998525, -0.0170199, -0.000702398, 0.000561026, -0.0286576, 0.561813, 0.18825
873.99071210700003576, -0.0170207, -0.000702648, 0.000561477, -0.0285897, 0.562087, 0.18819
874.02402844000005189, -0.0170185, -0.000703733, 0.000562976, -0.0284729, 0.562982, 0.187938
874.05734474500002307, -0.0170132, -0.000705126, 0.000563954, -0.0283651, 0.563547, 0.187904
874.09066110699995988, -0.0170128, -0.000705993, 0.000564953, -0.0283063, 0.56427, 0.188014
874.12412744000005205, -0.0170102, -0.000705751, 0.000564179, -0.0284263, 0.564319, 0.188215
874.1574437740000576, -0.0170099, -0.000705939, 0.000564061, -0.0284661, 0.564445, 0.188309
874.19076004500004728, -0.0170196, -0.000706369, 0.000565566, -0.0284641, 0.56516, 0.188639
874.22407641200004491, -0.0170195, -0.000706541, 0.000564794, -0.0284805, 0.565322, 0.188899
874.25739271199995528, -0.0170212, -0.000707572, 0.00056557, -0.0284479, 0.565771, 0.189319
874.29070904499997141, -0.0170257, -0.000707944, 0.000566777, -0.0285291, 0.566448, 0.189623
874.32402544000001399, -0.0170255, -0.000708208, 0.0005663, -0.0285642, 0.566446, 0.189964
874.35734177300003012, -0.0170288, -0.000708721, 0.000566523, -0.028501, 0.566738, 0.190345
874.39065810700003567, -0.0170292, -0.000708914, 0.000567066, -0.0283717, 0.568206, 0.190985
874.4239744400000518, -0.0170299, -0.000709026, 0.000566631, -0.028303, 0.56869, 0.191557
874.45744074499998533, -0.0170279, -0.000709035, 0.000565546, -0.0282558, 0.56903, 0.191787
874.49075710700003583, -0.0170403, -0.000707859, 0.000566541, -0.0280975, 0.570054, 0.191545
874.52407344000005196, -0.0170513, -0.000709437, 0.000562461, -0.0281601, 0.570552, 0.192237
874.55738977300006809, -0.0170537, -0.000709697, 0.000563666, -0.028186, 0.571145, 0.192443
874.59070606399995995, -0.0170585, -0.00070945, 0.000564795, -0.0281663, 0.571559, 0.192837
874.62402240699998401, -0.017064, -0.000709471, 0.000565713, -0.0281723, 0.572147, 0.193294
874.65733874500006095, -0.0170708, -0.000708839, 0.000566774, -0.0280602, 0.572915, 0.193378
874.69065510699999777, -0.017077, -0.00070858, 0.000566612, -0.0280685, 0.573709, 0.193455
874.72397140700002183, -0.017091, -0.000707659, 0.000567285, -0.0281769, 0.575038, 0.193478
874.75728774499998508, -0.0170902, -0.000707973, 0.00056735, -0.0281971, 0.57539, 0.194033
874.79060410700003558, -0.017094, -0.000707789, 0.000568002, -0.0282271, 0.575906, 0.194532
874.82407044000001406, -0.0171043, -0.000707161, 0.000568994, -0.0281788, 0.577217, 0.195266
874.85738674499998524, -0.0171275, -0.000704275, 0.000570929, -0.0279922, 0.579555, 0.195473
874.89070307300005425, -0.0171306, -0.000703707, 0.000570803, -0.0278893, 0.579819, 0.196142
874.92401944000005187, -0.0171383, -0.000701822, 0.000572011, -0.0276915, 0.58118, 0.19671
874.95733571599998868, -0.0171442, -0.000700079, 0.000571857, -0.0275457, 0.58246, 0.197696
874.99065210699995987, -0.0171454, -0.000699818, 0.000571812, -0.0273792, 0.58347, 0.199253
875.023968439999976, -0.0171506, -0.000699337, 0.000572509, -0.0274013, 0.584042, 0.199627
875.05728634000001875, -0.0171495, -0.000700045, 0.000571782, -0.0273462, 0.584304, 0.200809
875.09060107799996331, -0.0171438, -0.000700174, 0.000570933, -0.0272804, 0.584589, 0.201652
875.12391744000001381, -0.0171486, -0.000699583, 0.000571687, -0.0272549, 0.585346, 0.20182
875.15738374500006103, -0.017145, -0.000699411, 0.000570611, -0.0272227, 0.585935, 0.202897
875.19070010699999784, -0.0171647, -0.000696045, 0.000572488, -0.0269872, 0.588206, 0.204287
875.22401638300004834, -0.0171644, -0.000692155, 0.000570577, -0.0266508, 0.589606, 0.203909
875.2573327730000301, -0.0171709, -0.000691496, 0.000570748, -0.0266589, 0.59008, 0.204154
875.29064907800000128, -0.0171793, -0.000693225, 0.000571825, -0.0269058, 0.590423, 0.204124
875.32396887300001254, -0.0171812, -0.000695749, 0.000572148, -0.0271238, 0.590119, 0.204059
875.35728173999996216, -0.0171931, -0.000694224, 0.000573901, -0.0271115, 0.591185, 0.204498
875.39059810699995978, -0.0171945, -0.000693564, 0.000573502, -0.0269812, 0.592086, 0.205051
875.42391443999997591, -0.0172033, -0.000692486, 0.000574259, -0.0269336, 0.592305, 0.204662
875.45723074500006078, -0.0172223, -0.00069103, 0.000577021, -0.0268805, 0.594047, 0.205785
875.4905470730000161, -0.0172375, -0.000692038, 0.000579596, -0.0268761, 0.595734, 0.207076
875.524013406999984, -0.0172379, -0.000691848, 0.000580446, -0.0267909, 0.59635, 0.20753
875.55733031099998698, -0.0172443, -0.000690823, 0.000581239, -0.026763, 0.596845, 0.20779
875.59064610699999776, -0.0172558, -0.000688362, 0.000581739, -0.0265852, 0.598042, 0.208228
875.62396244000001388, -0.0172507, -0.000687754, 0.000580969, -0.026434, 0.59855, 0.208915
875.65727871600006438, -0.0172551, -0.000687836, 0.00058231, -0.0263822, 0.598996, 0.209153
875.69059507800000119, -0.0172776, -0.000687453, 0.000584183, -0.0265108, 0.599915, 0.208948
875.72391141100001732, -0.0172841, -0.00068795, 0.000584619, -0.0266225, 0.599828, 0.208805
875.75722777300006783, -0.0172886, -0.000688832, 0.000586434, -0.0266364, 0.599884, 0.208788
875.79054410699995969, -0.0172946, -0.000690633, 0.000586812, -0.026759, 0.600096, 0.208938
875.82386040699998375, -0.0172965, -0.000690965, 0.000586848, -0.0267792, 0.600282, 0.208969
875.85732671599998866, -0.0172971, -0.000690652, 0.00058748, -0.0266388, 0.600749, 0.209472
875.89064307299997836, -0.0172989, -0.000690186, 0.00058763, -0.0265442, 0.601134, 0.209976
875.9239594110000553, -0.0172952, -0.00069054, 0.000586958, -0.0265173, 0.601464, 0.210324
875.95727577299999211, -0.0173115, -0.000691336, 0.00058965, -0.0265566, 0.601974, 0.210397
875.99059210699999767, -0.0173089, -0.000692073, 0.000590038, -0.0265498, 0.601915, 0.21077
876.02390840700002173, -0.0173086, -0.000692263, 0.000590123, -0.0265753, 0.601726, 0.210785
876.05722550200005116, -0.0173089, -0.000691278, 0.0005901, -0.0263151, 0.602731, 0.211198
876.09054104500000903, -0.0173036, -0.000692186, 0.000589243, -0.0262261, 0.602417, 0.211672
876.12385741100001724, -0.017302, -0.000692667, 0.000588595, -0.026162, 0.60233, 0.211852
876.15717373999996198, -0.017303, -0.000692872, 0.000588722, -0.0260119, 0.603247, 0.212187
876.19064167800001997, -0.0173007, -0.000692645, 0.000587408, -0.0257477, 0.604348, 0.21262
876.22395644000005177, -0.0172924, -0.00069364, 0.000584785, -0.0256051, 0.604218, 0.213146
876.25727273999996214, -0.0172889, -0.000693127, 0.000582954, -0.0254464, 0.604257, 0.213332
876.29058910699995977, -0.0172908, -0.000691796, 0.000581674, -0.0252479, 0.604592, 0.213395
876.3239054399999759, -0.0172941, -0.000692412, 0.00058095, -0.0252074, 0.604338, 0.213348
876.35722177299999203, -0.017297, -0.000691785, 0.000580756, -0.0251321, 0.604476, 0.213262
876.39053811099995528, -0.0172971, -0.000691449, 0.000581053, -0.0250762, 0.604956, 0.213076
876.42385444900003222, -0.017296, -0.000689524, 0.000579516, -0.0248468, 0.606272, 0.212501
876.45717077799997696, -0.0172949, -0.000688102, 0.000577375, -0.0246848, 0.60629, 0.212304
876.49048710600004597, -0.0172961, -0.000688556, 0.000577219, -0.0246646, 0.606028, 0.212471
876.52380344000005152, -0.0172918, -0.000689121, 0.000577892, -0.0247012, 0.606517, 0.212835
876.55726977300003, -0.0172865, -0.000690142, 0.00057915, -0.0248118, 0.606927, 0.21323
876.59058604500000911, -0.0172849, -0.000691038, 0.000580308, -0.0248702, 0.607038, 0.213624
876.62390241100001731, -0.0172852, -0.000692132, 0.000580908, -0.0248309, 0.607063, 0.21413
876.65721874500002286, -0.0172812, -0.000692562, 0.000579885, -0.0246615, 0.607865, 0.214705
876.69053510599997026, -0.0172727, -0.000692979, 0.000578462, -0.0246525, 0.608176, 0.215179
876.72385140599999431, -0.0172695, -0.00069485, 0.000578322, -0.0246373, 0.608008, 0.215756
876.75716777299999194, -0.0172765, -0.000695398, 0.000578626, -0.024655, 0.607374, 0.21611
876.79048407799996312, -0.0172702, -0.000694785, 0.000577621, -0.0245558, 0.607724, 0.216293
876.82380040600003213, -0.017266, -0.000694638, 0.000577424, -0.0244541, 0.608043, 0.216605
876.8571167449999848, -0.0172673, -0.000693475, 0.000577817, -0.0244087, 0.608378, 0.216574
876.89058310600000823, -0.0172635, -0.000692556, 0.000577022, -0.0243665, 0.609046, 0.216732
876.92389944000001378, -0.0172607, -0.000691276, 0.000577189, -0.0243822, 0.609779, 0.216826
876.95721574499998496, -0.0172615, -0.000690305, 0.000577482, -0.0243471, 0.61, 0.216889
876.99053207300005397, -0.0172564, -0.000689079, 0.000577008, -0.0242971, 0.610579, 0.217162
877.02384843499999079, -0.0172565, -0.00068758, 0.000575724, -0.0242776, 0.61134, 0.216878
877.05716477300006773, -0.0172557, -0.000687281, 0.000574977, -0.0242217, 0.611786, 0.217007
877.09048110599997017, -0.0172544, -0.000688701, 0.000576424, -0.0243481, 0.611852, 0.217525
877.12379743999997572, -0.0172584, -0.000689955, 0.000577255, -0.024478, 0.611678, 0.217127
877.15711377299999185, -0.0172469, -0.000689763, 0.00057556, -0.0244898, 0.612134, 0.217358
877.19043010600000798, -0.0172424, -0.000688592, 0.00057629, -0.024442, 0.612565, 0.218057
877.2237463830000479, -0.0172277, -0.000688902, 0.000575486, -0.024505, 0.61341, 0.218467
877.25721277299999201, -0.0172231, -0.000688059, 0.000576091, -0.0245234, 0.613992, 0.218702
877.29052910600000814, -0.0172164, -0.000687935, 0.000576799, -0.0244158, 0.614171, 0.21944
877.3238454060000322, -0.0172091, -0.000687248, 0.000575908, -0.0243723, 0.614275, 0.219837
877.35716177300002983, -0.0171922, -0.000687051, 0.000574755, -0.0243755, 0.614699, 0.220713
877.39047810600004595, -0.0171718, -0.000685873, 0.000576138, -0.024474, 0.615328, 0.221286
877.42379441100001713, -0.01717, -0.000685818, 0.000577933, -0.0244465, 0.614965, 0.222103
877.45711073500001476, -0.0171715, -0.000686156, 0.000578218, -0.0244592, 0.614913, 0.222159
877.49042707299997801, -0.0171717, -0.000681322, 0.000574152, -0.0242009, 0.615513, 0.221779
877.52374343999997564, -0.0171708, -0.000681291, 0.000573942, -0.0241547, 0.615669, 0.221768
877.55705977299999176, -0.0171645, -0.000680157, 0.000573402, -0.0240254, 0.61611, 0.222328
877.59052610599997024, -0.0171443, -0.000679234, 0.000570816, -0.0239527, 0.616956, 0.222957
877.62384241100005511, -0.0171276, -0.000677703, 0.000567371, -0.0238064, 0.617826, 0.223428
877.65715873999999985, -0.0171227, -0.000676834, 0.00056524, -0.0237367, 0.618377, 0.223557
877.69047510600000805, -0.0171112, -0.000675407, 0.000563309, -0.023658, 0.619198, 0.223915
877.72379138200005855, -0.017111, -0.000675569, 0.000565655, -0.0237743, 0.61922, 0.224323
877.75710955400006696, -0.0171118, -0.000677858, 0.0005664, -0.0238014, 0.61859, 0.224663
877.79042410600004587, -0.0171085, -0.000675821, 0.000562148, -0.0235822, 0.619088, 0.224545
877.82374038199998267, -0.0171075, -0.000676204, 0.000561943, -0.0235854, 0.619094, 0.224661
877.85705673999996179, -0.017107, -0.000675505, 0.000562096, -0.0235619, 0.619363, 0.22481
877.89037307299997792, -0.0171048, -0.000675392, 0.000565095, -0.0237313, 0.619708, 0.225334
877.92368996799996239, -0.0171012, -0.00067628, 0.000567986, -0.0239432, 0.620031, 0.225543
877.95715577300006771, -0.0171026, -0.000676645, 0.00056969, -0.0240838, 0.620123, 0.225508
877.99047207299997808, -0.017102, -0.000675905, 0.000571403, -0.0241951, 0.620536, 0.225622
878.02378841100005502, -0.0171031, -0.000675481, 0.000570443, -0.0239759, 0.620526, 0.225972
878.05710474399995746, -0.0171053, -0.000673786, 0.000570706, -0.0239472, 0.620897, 0.226028
878.09042107799996302, -0.0171037, -0.000673723, 0.000571875, -0.0239462, 0.621359, 0.226577
878.12373741099997915, -0.0171061, -0.000674398, 0.000573089, -0.0240725, 0.621345, 0.226612
878.15705377300002965, -0.0171096, -0.000677599, 0.000572529, -0.0242865, 0.620557, 0.226456
878.19037007300005371, -0.0171082, -0.000673199, 0.000573532, -0.0240477, 0.621709, 0.226637
878.22368641100001696, -0.0171085, -0.000672757, 0.000574272, -0.0239195, 0.621788, 0.227067
878.25700277300006746, -0.0171098, -0.000672177, 0.000574889, -0.023875, 0.621899, 0.227235
878.29046910600004594, -0.0171096, -0.000670793, 0.000576328, -0.0238289, 0.622493, 0.227559
878.32378750099996978, -0.0171116, -0.000668543, 0.000579214, -0.0237897, 0.623446, 0.228109
878.35710177300006762, -0.01711, -0.000664859, 0.000580537, -0.0237219, 0.62428, 0.22823
878.39041810599997007, -0.01711, -0.000664751, 0.000581196, -0.0236649, 0.624364, 0.228552
878.42373438200002056, -0.0171132, -0.000664419, 0.000582235, -0.023675, 0.624572, 0.228707
878.45705077299999175, -0.0171124, -0.000664541, 0.000583868, -0.023732, 0.625148, 0.228945
878.49036705399998937, -0.0171108, -0.000662424, 0.000585416, -0.0236442, 0.62587, 0.229342
878.52368344000001343, -0.0171144, -0.000662011, 0.000586104, -0.0235918, 0.62603, 0.229921
878.55699974000003749, -0.0171088, -0.000662483, 0.000586995, -0.0234642, 0.626391, 0.230959
878.59031607800000074, -0.0171069, -0.000663049, 0.000586671, -0.023308, 0.626298, 0.231581
878.62363282000001163, -0.0171075, -0.000661455, 0.000586674, -0.0231948, 0.626844, 0.231664
878.65709873900004823, -0.0171092, -0.000661128, 0.000586487, -0.0230985, 0.627026, 0.232042
878.6904150780000009, -0.0171078, -0.000662738, 0.000586187, -0.0231437, 0.626821, 0.232399
878.72373138700004347, -0.0171079, -0.000663605, 0.000586321, -0.0230882, 0.626713, 0.232956
878.75704771100004109, -0.0171138, -0.00066136, 0.000586803, -0.0229225, 0.626931, 0.23361
878.79036407800003872, -0.0171225, -0.000658274, 0.000590411, -0.0228415, 0.627631, 0.233268
878.82368041100005485, -0.0171198, -0.000660232, 0.00058981, -0.0227782, 0.627184, 0.233866
878.85699672999999166, -0.0171242, -0.000660426, 0.000588777, -0.0228041, 0.626698, 0.233537
878.89031307300001572, -0.0171251, -0.000659469, 0.000587076, -0.022547, 0.626437, 0.234304
878.92362943900002392, -0.0171242, -0.000659956, 0.000587686, -0.0223943, 0.626218, 0.234917
878.95694577300002948, -0.0171216, -0.000660766, 0.000588578, -0.0223888, 0.626371, 0.235389
878.99041207300001588, -0.017116, -0.000662389, 0.000591664, -0.0224577, 0.626738, 0.236046
879.02372840600003201, -0.0171167, -0.000662807, 0.00059246, -0.0224241, 0.626612, 0.236307
879.05704474399999526, -0.0171196, -0.000663471, 0.0005938, -0.0224288, 0.626763, 0.236682
879.09036107800000082, -0.0171211, -0.00066428, 0.000595786, -0.0224965, 0.62688, 0.236914
879.12367737800002487, -0.0171096, -0.000665199, 0.000595978, -0.0225307, 0.626986, 0.23734
879.15699373899997227, -0.0171093, -0.000666403, 0.000596891, -0.022526, 0.627174, 0.237787
879.19031010599996989, -0.0171066, -0.000666262, 0.000596984, -0.0223728, 0.627657, 0.238247
879.22362643899998602, -0.0170954, -0.000663446, 0.000592478, -0.0221032, 0.62766, 0.238218
879.25694273900001008, -0.0170971, -0.000662396, 0.000592665, -0.0219988, 0.627921, 0.238405
879.29025910600000771, -0.0170914, -0.000662922, 0.000594162, -0.0220098, 0.628367, 0.238678
879.32372543899998618, -0.0170967, -0.000661847, 0.000597324, -0.0220649, 0.628514, 0.238884
879.35704177299999174, -0.0171113, -0.000660417, 0.000600455, -0.0220767, 0.628886, 0.238679
879.39035807699997349, -0.0171044, -0.000660485, 0.000601458, -0.0219757, 0.629215, 0.239083
879.42367443900002399, -0.0171021, -0.000660602, 0.000601703, -0.0219964, 0.629577, 0.239282
879.45699078699999518, -0.0170978, -0.000661378, 0.000602123, -0.0220163, 0.629755, 0.239538
879.4903070770000113, -0.0171064, -0.000659594, 0.000604264, -0.0221062, 0.629685, 0.239402
879.52362340599995605, -0.0171145, -0.000658927, 0.000606005, -0.022247, 0.629451, 0.238982
879.55693971100004092, -0.0170967, -0.000660152, 0.000603605, -0.0222748, 0.629273, 0.238315
879.5902561059999698, -0.0170937, -0.000662775, 0.000602046, -0.0220876, 0.629509, 0.238526
879.62357240599999386, -0.017094, -0.000663817, 0.000600602, -0.02199, 0.6293, 0.239181
879.65688877299999149, -0.0170998, -0.000662443, 0.000602097, -0.0220491, 0.629447, 0.238786
879.69035507299997789, -0.0171034, -0.000661973, 0.000603464, -0.0220377, 0.629447, 0.239001
879.72367140599999402, -0.01711, -0.000661991, 0.000604027, -0.0219347, 0.62964, 0.239126
879.75698774399995727, -0.0171076, -0.000663331, 0.000603044, -0.0218718, 0.629682, 0.239342
879.79030410600000778, -0.0170987, -0.00066482, 0.000602218, -0.0217911, 0.629942, 0.239696
879.82362041099997896, -0.0170846, -0.000665017, 0.000602232, -0.021793, 0.630335, 0.240174
879.85693674399999509, -0.0170823, -0.000666033, 0.000602595, -0.0217482, 0.630439, 0.24065
879.89025310600004559, -0.017053, -0.000668277, 0.00060191, -0.0217294, 0.631058, 0.240898
879.92356940599995596, -0.0170344, -0.00066926, 0.000601446, -0.021728, 0.631774, 0.241042
879.95688577300006727, -0.0170309, -0.000669692, 0.000601267, -0.0217449, 0.631901, 0.241143
879.99020207299997764, -0.0170245, -0.000671122, 0.000601192, -0.0216914, 0.632294, 0.241464
880.02366843900006188, -0.0169977, -0.000672694, 0.000598246, -0.0216234, 0.63341, 0.241321
880.05698477300006743, -0.0169942, -0.000671634, 0.000599426, -0.021508, 0.634139, 0.241081
880.09030107299997781, -0.0169846, -0.000671674, 0.000599261, -0.021529, 0.634573, 0.241144
880.12361740599999393, -0.0169795, -0.000671058, 0.000599405, -0.0216829, 0.634732, 0.241168
880.15693373500005237, -0.0169852, -0.000670244, 0.000599931, -0.0217262, 0.634376, 0.241179
880.19025007300001562, -0.0169916, -0.000669965, 0.000600871, -0.0216941, 0.634501, 0.241689
880.22356641099997887, -0.0169819, -0.000670077, 0.000600242, -0.0215837, 0.635152, 0.241626
880.25688277300002937, -0.0169834, -0.000670207, 0.000600345, -0.021573, 0.635116, 0.241726
880.2901991060000455, -0.0169796, -0.000669878, 0.000599734, -0.021567, 0.635531, 0.24182
880.32351541100001668, -0.0169726, -0.000669329, 0.000600828, -0.0215729, 0.636256, 0.242121
880.35683174400003281, -0.016971, -0.000668884, 0.000601437, -0.0215479, 0.636571, 0.242746
880.39029807300005359, -0.0169726, -0.000667853, 0.000601924, -0.0215935, 0.637048, 0.243036
880.42361443900006179, -0.0169731, -0.000667798, 0.00060106, -0.0215313, 0.637092, 0.243206
880.4569307110000409, -0.0169787, -0.000667825, 0.000601699, -0.0214818, 0.636958, 0.243534
880.49024707299997772, -0.0169813, -0.000667141, 0.000600697, -0.0214254, 0.636918, 0.243675
880.52356343899998592, -0.0169852, -0.000665947, 0.000600665, -0.0213582, 0.637268, 0.243798
880.55687977700006286, -0.0169864, -0.000665012, 0.000600643, -0.0212535, 0.63765, 0.2439
880.5901961060000076, -0.016992, -0.000663778, 0.000601591, -0.0211701, 0.638116, 0.244044
880.62351240600003166, -0.0170021, -0.00066355, 0.000602528, -0.0211365, 0.637866, 0.244404
880.65682885800003987, -0.0170071, -0.000663505, 0.000603635, -0.02117, 0.638009, 0.244565
880.69014507300005334, -0.0170121, -0.000663086, 0.000605444, -0.0212049, 0.638453, 0.244827
880.72361141099997894, -0.0170183, -0.000663376, 0.000606395, -0.0211584, 0.638316, 0.245132
880.75692802000003212, -0.0170216, -0.000663411, 0.000606128, -0.0211326, 0.638375, 0.245416
880.7902440730000535, -0.0170219, -0.000662934, 0.000606375, -0.0210444, 0.638825, 0.245922
880.82356041100001676, -0.0170146, -0.000663109, 0.000606445, -0.0210171, 0.639047, 0.246303
880.85687674400003289, -0.0170259, -0.000663397, 0.000609168, -0.021186, 0.63906, 0.246196
880.8901931059999697, -0.017029, -0.000662989, 0.000609926, -0.0212102, 0.639542, 0.246466
880.92350948199998584, -0.0170332, -0.000661387, 0.000609853, -0.0211246, 0.640111, 0.246539
880.95682577700006277, -0.0170351, -0.000660295, 0.000610057, -0.0210305, 0.640549, 0.247035
880.99014207200002602, -0.0170369, -0.000658187, 0.000611434, -0.0209462, 0.641686, 0.247602
881.02345840600003157, -0.0170426, -0.000657513, 0.000612976, -0.0209484, 0.642354, 0.247953
881.0567747390000477, -0.0170281, -0.000657579, 0.0006124, -0.0209868, 0.642919, 0.248303
881.09024110600000768, -0.0170317, -0.00065483, 0.00061329, -0.0208575, 0.643831, 0.248969
881.12355740600003173, -0.0170522, -0.000649626, 0.000614141, -0.0207702, 0.644626, 0.249524
881.15687378699999499, -0.0170601, -0.00064736, 0.000614716, -0.0207541, 0.645302, 0.249892
881.19019007700001112, -0.0170642, -0.00064538, 0.000615335, -0.0207153, 0.646093, 0.250339
881.22350641100001667, -0.0170594, -0.000644695, 0.000614881, -0.0206787, 0.646576, 0.250396
881.2568227440000328, -0.0170615, -0.000645381, 0.000616746, -0.0206771, 0.646843, 0.250761
881.29013908700005686, -0.0170605, -0.00064655, 0.000617097, -0.0206815, 0.646895, 0.251004
881.32345543899998574, -0.0170691, -0.000644836, 0.000617666, -0.020694, 0.647683, 0.250919
881.35677177200000187, -0.0170758, -0.00064352, 0.000619605, -0.0206876, 0.648234, 0.251131
881.39008810600000743, -0.0170785, -0.000642759, 0.000620246, -0.0206917, 0.648606, 0.251242
881.42355440599999383, -0.0170824, -0.000640766, 0.000621201, -0.0206234, 0.649109, 0.25144
881.45687077200000203, -0.0170859, -0.000639362, 0.000622537, -0.0205971, 0.649787, 0.251636
881.49018707699997321, -0.0170892, -0.000638423, 0.000623315, -0.0206271, 0.65031, 0.251562
881.52350340600003165, -0.0170903, -0.000637585, 0.000624795, -0.0206211, 0.650625, 0.251835
881.55681973900004778, -0.0170932, -0.000636916, 0.000625992, -0.0205863, 0.65092, 0.25209
881.59013604400001896, -0.0170894, -0.000636077, 0.000623808, -0.0204103, 0.651124, 0.252197
881.62345243900006153, -0.017089, -0.0006299, 0.000624152, -0.020099, 0.651728, 0.252714
881.65676871499999834, -0.0170935, -0.00062834, 0.00062619, -0.0200116, 0.652207, 0.253211
881.69008507700004884, -0.0170927, -0.000627957, 0.000626682, -0.0200384, 0.652493, 0.253342
881.72340140100004646, -0.0170938, -0.000627052, 0.000628207, -0.0201083, 0.653136, 0.253444
881.75671777200000179, -0.0170896, -0.000625835, 0.000628394, -0.0200619, 0.653606, 0.253674
881.79018410599996969, -0.0170881, -0.000623939, 0.000627932, -0.0200264, 0.654201, 0.253719
881.82350043899998582, -0.0171002, -0.000623723, 0.000629033, -0.020064, 0.654306, 0.253531
881.85681677200000195, -0.0171075, -0.000624051, 0.000630202, -0.0200982, 0.654136, 0.253454
881.890133072000026, -0.0171131, -0.000622658, 0.000629928, -0.0200467, 0.654284, 0.253331
881.92344943900002363, -0.0171087, -0.000621592, 0.000629967, -0.019987, 0.654662, 0.253635
881.95676573900004769, -0.0171102, -0.000619086, 0.000630662, -0.0199224, 0.655258, 0.253756
881.99008210600004531, -0.0171134, -0.000617813, 0.000631672, -0.0199459, 0.655647, 0.253938
882.02339838199998212, -0.0171083, -0.000617172, 0.000632012, -0.0200356, 0.656008, 0.254131
882.05671477199996389, -0.0171127, -0.000614833, 0.000632845, -0.0200753, 0.656687, 0.25405
882.09003104400005668, -0.0171212, -0.00061032, 0.000635259, -0.0200412, 0.657666, 0.254191
882.1234974390000616, -0.0171338, -0.000607594, 0.000637308, -0.0201043, 0.658278, 0.254332
882.15681377199996405, -0.0171307, -0.0006065, 0.000637508, -0.019894, 0.658388, 0.254627
882.1901300719999881, -0.0171195, -0.000603282, 0.000636839, -0.0197468, 0.659148, 0.25508
882.22344643899998573, -0.017119, -0.000602798, 0.000638194, -0.0196815, 0.659229, 0.25541
882.25676277200000186, -0.0171219, -0.000604237, 0.000638847, -0.0197174, 0.658958, 0.255602
882.29007907699997304, -0.0171275, -0.000604409, 0.00063887, -0.0197239, 0.65878, 0.255504
882.32339540999998917, -0.0171308, -0.000603564, 0.000638792, -0.0196517, 0.658819, 0.255524
882.35671177200003967, -0.017129, -0.000603774, 0.000638842, -0.019613, 0.658885, 0.255577
882.39002811000000293, -0.0171254, -0.000602184, 0.000638616, -0.019613, 0.659313, 0.255656
882.42334443900006136, -0.0171217, -0.000600316, 0.000638772, -0.019655, 0.659703, 0.255956
882.45681074399999488, -0.0171276, -0.000600249, 0.000639901, -0.0197232, 0.659549, 0.255978
882.49012707200006389, -0.0171389, -0.000599147, 0.000640497, -0.0197424, 0.659624, 0.255774
882.52344341000002714, -0.0171396, -0.000600466, 0.000638492, -0.0197914, 0.65965, 0.255493
882.5567597440000327, -0.0171308, -0.000599869, 0.000637439, -0.0198475, 0.659836, 0.255527
882.59007610599996951, -0.0171262, -0.000597429, 0.000638724, -0.0199196, 0.660301, 0.255777
882.62339239100003851, -0.0171311, -0.000594517, 0.000641364, -0.0199435, 0.660754, 0.256202
882.65670877200000177, -0.017132, -0.000593324, 0.00064275, -0.0199656, 0.660922, 0.256423
882.69002507699997295, -0.0171314, -0.000593781, 0.000643585, -0.019987, 0.660948, 0.25662
882.72334140999998908, -0.0171305, -0.000594302, 0.000646076, -0.0199464, 0.660935, 0.257106
882.75665777200003959, -0.0171313, -0.000591536, 0.000646573, -0.0199464, 0.661429, 0.257433
882.78997410600004514, -0.0171332, -0.000591718, 0.000645345, -0.0198968, 0.661576, 0.257373
882.82344043900002362, -0.0171385, -0.000593198, 0.000646052, -0.019845, 0.661468, 0.257643
882.8567567439999948, -0.0171224, -0.000591606, 0.00064474, -0.0199027, 0.661843, 0.257939
882.8900731060000453, -0.0171105, -0.00059269, 0.0006451, -0.020023, 0.661537, 0.258375
882.92338943900006143, -0.0170652, -0.000607238, 0.000644106, -0.0201084, 0.659931, 0.258617
882.9567057389999718, -0.0170639, -0.00060611, 0.000644178, -0.020054, 0.660126, 0.258786
882.99002212499999587, -0.0170635, -0.000604129, 0.00064299, -0.0199337, 0.660578, 0.258943
883.02333841000006487, -0.0170701, -0.000604935, 0.000643713, -0.0199289, 0.660592, 0.259162
883.05665477200000169, -0.0170756, -0.000604219, 0.000644714, -0.0199237, 0.660671, 0.259232
883.08997110600000724, -0.0170761, -0.000605071, 0.000646636, -0.0200106, 0.660457, 0.259272
883.12328743900002337, -0.0170757, -0.000604295, 0.000648432, -0.0200624, 0.660489, 0.259442
883.15675377200000185, -0.0170845, -0.00060455, 0.000651311, -0.0200779, 0.660338, 0.259723
883.19007010500001797, -0.0170824, -0.000605886, 0.0006544, -0.0201671, 0.660194, 0.259945
883.22338643900002353, -0.0170739, -0.000608879, 0.000655529, -0.0202338, 0.659899, 0.260095
883.25670274399999471, -0.0170816, -0.000609544, 0.000658331, -0.020188, 0.659769, 0.260404
883.29001904400001877, -0.0170787, -0.000606681, 0.000656746, -0.0200383, 0.659852, 0.26039
883.32333543900006134, -0.0170785, -0.000606449, 0.000656247, -0.0200337, 0.659919, 0.260406
883.35665173899997171, -0.0170767, -0.000605227, 0.00065526, -0.020071, 0.660125, 0.26047
883.38996810499997991, -0.0170776, -0.000603989, 0.000657665, -0.020057, 0.6604, 0.260791
883.42328443899998547, -0.0170799, -0.000606117, 0.000661446, -0.0201632, 0.660301, 0.261167
883.45660073900000953, -0.0170838, -0.000607546, 0.000664334, -0.02024, 0.660261, 0.261613
883.48991707699997278, -0.0170827, -0.000606985, 0.000665423, -0.0202299, 0.660311, 0.261778
883.52338343899998563, -0.0170715, -0.000607121, 0.000663731, -0.0201309, 0.660498, 0.261673
883.55669977200000176, -0.0170731, -0.00060592, 0.000663281, -0.0201166, 0.660782, 0.261725
883.59001610500001789, -0.0170858, -0.000605042, 0.000663323, -0.020173, 0.660548, 0.26151
883.62333240500004194, -0.0170949, -0.000603375, 0.000665571, -0.0201339, 0.660553, 0.261916
883.6566487390000475, -0.0171037, -0.000601871, 0.000665358, -0.020164, 0.660749, 0.261956
883.6899651050000557, -0.0171035, -0.000603633, 0.000664905, -0.0201188, 0.660708, 0.262154
883.72328140499996607, -0.0171004, -0.000604458, 0.00066487, -0.0200932, 0.660776, 0.262351
883.7565977719999637, -0.0171052, -0.000604459, 0.000666521, -0.0201089, 0.660696, 0.262641
883.78991407199998775, -0.0171, -0.000606121, 0.000667713, -0.0201941, 0.660735, 0.262725
883.82323043899998538, -0.0170989, -0.000607826, 0.000668733, -0.0202431, 0.660626, 0.262881
883.8566967100000511, -0.0171096, -0.000606403, 0.000668496, -0.0202096, 0.660684, 0.262802
883.89001310499997999, -0.0171151, -0.000604886, 0.000668404, -0.0201695, 0.660873, 0.262964
883.92332943899998554, -0.0171118, -0.000604873, 0.000668949, -0.0201404, 0.66094, 0.263213
883.9566457390000096, -0.0171099, -0.000604905, 0.000669089, -0.0201259, 0.660965, 0.263319
883.9899621050000178, -0.017117, -0.000604545, 0.000670874, -0.0202048, 0.661024, 0.263462
884.02327840500004186, -0.0171038, -0.000608682, 0.00066766, -0.0203805, 0.660237, 0.262584
884.05659477200003948, -0.0171196, -0.000610755, 0.000668712, -0.0204157, 0.659791, 0.262327
884.08991107700001066, -0.0171272, -0.000611278, 0.000669045, -0.020416, 0.65978, 0.262464
884.12322743900006117, -0.0171204, -0.000612174, 0.000669414, -0.0203824, 0.659897, 0.262891
884.15654377199996361, -0.0171185, -0.000612024, 0.00066904, -0.0203393, 0.659967, 0.26308
884.18986007700004848, -0.0171154, -0.000611513, 0.000669323, -0.0203801, 0.660067, 0.263136
884.22332643900006133, -0.0171158, -0.000610871, 0.000670585, -0.02041, 0.660142, 0.263191
884.2566427389999717, -0.0171225, -0.000611125, 0.000671696, -0.0204507, 0.660259, 0.263321
884.2899591049999799, -0.0171227, -0.000610794, 0.000672092, -0.0205253, 0.660279, 0.263292
884.32327540500000396, -0.0171235, -0.000611458, 0.000672735, -0.0204898, 0.660198, 0.263497
884.35659177200000158, -0.0171141, -0.000611623, 0.000671461, -0.020277, 0.660453, 0.263785
884.38990807699997276, -0.0171278, -0.000608891, 0.000669884, -0.0202698, 0.661245, 0.263321
884.42322440999998889, -0.0171266, -0.000608119, 0.000670491, -0.0202333, 0.661491, 0.263441
884.45654193899997608, -0.0171192, -0.000607174, 0.000673416, -0.0202243, 0.6619, 0.264081
884.48985710500005553, -0.0171201, -0.000603871, 0.0006746, -0.0202883, 0.662877, 0.264449
884.52317341000002671, -0.0171144, -0.000602016, 0.000676855, -0.0203924, 0.663028, 0.265054
884.55663977200003956, -0.017116, -0.000602009, 0.000677468, -0.0204288, 0.662923, 0.265124
884.58995610500005569, -0.0171165, -0.000599817, 0.000680762, -0.0203362, 0.663278, 0.265798
884.62327240499996606, -0.0171066, -0.000598949, 0.000681477, -0.0204013, 0.663481, 0.266054
884.65658877199996368, -0.0171059, -0.000596713, 0.000682602, -0.020396, 0.663726, 0.266365
884.68990507199998774, -0.0171069, -0.000594433, 0.000683948, -0.0204056, 0.66401, 0.266822
884.72322141000006468, -0.0171061, -0.00059275, 0.000684889, -0.0203723, 0.664249, 0.266994
884.7565377720000015, -0.0171027, -0.000592812, 0.000684563, -0.0203687, 0.664382, 0.267005
884.78985410500001763, -0.0171063, -0.000592959, 0.000685003, -0.0203821, 0.664404, 0.26727
884.82317044299998088, -0.0170992, -0.000595789, 0.000684315, -0.0203587, 0.66392, 0.26749
884.85648677200003931, -0.0170978, -0.000592469, 0.000683966, -0.0202116, 0.663987, 0.267326
884.88980310500005544, -0.0170593, -0.000593119, 0.000678485, -0.0199942, 0.663287, 0.267628
884.92326937699999689, -0.0170575, -0.000593881, 0.000680192, -0.0200567, 0.663299, 0.267694
884.9565857390000474, -0.017059, -0.000594113, 0.0006813, -0.0201058, 0.663229, 0.267893
884.9899021050000556, -0.017064, -0.000593388, 0.000682217, -0.0201203, 0.663122, 0.268012
885.02321732999996584, -0.0170589, -0.000594077, 0.000680644, -0.020076, 0.663217, 0.268048
885.05653193099999498, -0.0170567, -0.00059347, 0.000680129, -0.0201072, 0.663424, 0.267974
885.08984541799998169, -0.0170553, -0.000592434, 0.000679442, -0.0201316, 0.663675, 0.267855
885.12315945199998168, -0.017053, -0.000590695, 0.00067831, -0.0201915, 0.663903, 0.267924
885.1564734869999711, -0.0170516, -0.00059196, 0.000679644, -0.0202615, 0.663905, 0.268026
885.18978752099997109, -0.0170406, -0.000592111, 0.000678277, -0.0202903, 0.663795, 0.267737
885.22310152199997901, -0.0170533, -0.000588809, 0.000678454, -0.02021, 0.664025, 0.267656
885.2565655800000286, -0.0170521, -0.000586445, 0.000678461, -0.0201998, 0.664286, 0.267853
885.28987958599998365, -0.0170449, -0.000584627, 0.00067918, -0.0201448, 0.664689, 0.268066
885.32319360600001801, -0.0170344, -0.000582874, 0.00067985, -0.0200937, 0.665147, 0.268427
885.35650765000002593, -0.0170204, -0.000580999, 0.00068074, -0.0200803, 0.665662, 0.268773
885.38982171800000742, -0.0170076, -0.000581058, 0.000682269, -0.0200411, 0.666069, 0.269108
885.42313571900001534, -0.0169866, -0.00058022, 0.000683394, -0.0200631, 0.666763, 0.26956
885.45644978699999683, -0.0169869, -0.000579358, 0.000682948, -0.020094, 0.666955, 0.269562
885.48976382099999682, -0.0169864, -0.000580843, 0.000683166, -0.020014, 0.667206, 0.269626
885.5230778799999598, -0.0169887, -0.000580266, 0.000683528, -0.0199752, 0.668037, 0.269572
885.55639189500004704, -0.0169793, -0.000578565, 0.000685077, -0.0199886, 0.668375, 0.269861
885.58985588100006225, -0.0169812, -0.000577587, 0.000685077, -0.0201007, 0.668473, 0.269826
885.62316994900004374, -0.0169834, -0.000576402, 0.000687659, -0.0200442, 0.668513, 0.270238
885.65648398400003316, -0.0169841, -0.000576165, 0.000687955, -0.0199676, 0.668907, 0.270347
885.68979801800003315, -0.0169885, -0.000573188, 0.000689714, -0.0198624, 0.669401, 0.270494
885.72311205300002257, -0.0170014, -0.000571346, 0.000691961, -0.019791, 0.670013, 0.27036
885.75642608700002256, -0.0170089, -0.000569735, 0.000695122, -0.0198846, 0.67088, 0.270656
885.78974012200001198, -0.0170037, -0.00056598, 0.000697985, -0.0199646, 0.67174, 0.270957
885.82305415600001197, -0.0170073, -0.000565709, 0.000699388, -0.0199744, 0.671944, 0.271165
885.85636819100000139, -0.0170027, -0.000567423, 0.000701011, -0.0199525, 0.672218, 0.271602
885.88968222500000138, -0.0170221, -0.000567385, 0.000707923, -0.019899, 0.673046, 0.272367
885.9229962599999908, -0.0170307, -0.000567936, 0.000712011, -0.0198769, 0.673488, 0.272999
885.95646024999996371, -0.0170249, -0.000571353, 0.000710671, -0.0198234, 0.672849, 0.273517
885.98977428500006681, -0.0170298, -0.000572697, 0.000712796, -0.019801, 0.672881, 0.273796
886.02308939900001405, -0.0170321, -0.000572358, 0.000712452, -0.019745, 0.673001, 0.273718
886.05640574300002754, -0.0170286, -0.000572697, 0.000712055, -0.0197765, 0.673031, 0.274027
886.08972210499996436, -0.0170213, -0.000573006, 0.000711456, -0.019783, 0.67312, 0.274143
886.12303843799998049, -0.0170332, -0.000571486, 0.000712635, -0.0199202, 0.673213, 0.274024
886.15635480000003099, -0.0170453, -0.00057068, 0.000712696, -0.0200458, 0.673153, 0.273893
886.18967110500000217, -0.0170375, -0.000572213, 0.000711762, -0.020006, 0.67299, 0.274181
886.22298740500002623, -0.0170271, -0.000574122, 0.000710572, -0.0199434, 0.672779, 0.274465
886.25630373800004236, -0.0170202, -0.000574422, 0.000710764, -0.0199164, 0.672986, 0.274616
886.28977007200001026, -0.0170188, -0.000575537, 0.000711166, -0.0199452, 0.672946, 0.274854
886.32308640500002639, -0.0170416, -0.000575484, 0.000712666, -0.0199745, 0.672626, 0.274819
886.35640273800004252, -0.0170391, -0.000577117, 0.000710951, -0.0199249, 0.672328, 0.275071
886.38971910500004014, -0.0170305, -0.000579338, 0.000709346, -0.0198709, 0.672153, 0.275352
886.42303537600002983, -0.0170133, -0.000582693, 0.000708073, -0.0197388, 0.671817, 0.275796
886.45635174300002745, -0.0170113, -0.000582967, 0.000708243, -0.0197087, 0.671805, 0.275882
886.48966810499996427, -0.0170192, -0.000582965, 0.000707883, -0.019659, 0.671739, 0.275907
886.52298438100001476, -0.0170165, -0.000582748, 0.000707058, -0.0195957, 0.671834, 0.275905
886.55630077199998595, -0.0170206, -0.000580685, 0.0007069, -0.0194833, 0.672016, 0.275834
886.58961710500000208, -0.017022, -0.000581499, 0.00070574, -0.0194496, 0.671954, 0.275904
886.62293340999997326, -0.0170177, -0.000581962, 0.000705561, -0.0193691, 0.672116, 0.276068
886.65639973800000462, -0.0170112, -0.000582809, 0.000706131, -0.0193396, 0.672524, 0.276308
886.68971607599996787, -0.0170154, -0.000582397, 0.000706988, -0.019321, 0.672974, 0.276388
886.72303243800001837, -0.0170031, -0.000584151, 0.000707507, -0.0193134, 0.673149, 0.276594
886.75634873800004243, -0.0169881, -0.000586573, 0.000709653, -0.0194683, 0.673164, 0.277114
886.78966510500004006, -0.016994, -0.000588043, 0.000709982, -0.0195755, 0.673021, 0.277374
886.82298143800005619, -0.0170069, -0.000584418, 0.00070941, -0.019539, 0.672897, 0.276986
886.85629777200006174, -0.0169977, -0.000585601, 0.000707516, -0.0194427, 0.673082, 0.277092
886.88961440000002767, -0.0169987, -0.000586159, 0.000707699, -0.0194299, 0.67305, 0.277069
886.92293040499998824, -0.0169954, -0.000586232, 0.00070688, -0.0194529, 0.673617, 0.276921
886.95624673800000437, -0.0169903, -0.000581761, 0.000706658, -0.0197862, 0.673692, 0.276823
886.98971307199997227, -0.0170247, -0.000581544, 0.000707424, -0.0199026, 0.673557, 0.277293
887.02302943799998047, -0.0170096, -0.000583859, 0.000705225, -0.0198517, 0.673238, 0.2774
887.05634573800000453, -0.0170095, -0.000584671, 0.000705048, -0.0196998, 0.673373, 0.277195
887.08966207200001008, -0.0170091, -0.000584846, 0.000705275, -0.019628, 0.673311, 0.277236
887.12297841899999185, -0.0169962, -0.00058667, 0.00070459, -0.0196115, 0.673314, 0.277425
887.15629473800004234, -0.0169871, -0.000585922, 0.000705186, -0.0196817, 0.673159, 0.277646
887.18961110500003997, -0.016986, -0.000585431, 0.000706099, -0.0197666, 0.673194, 0.277797
887.2229274380000561, -0.0169377, -0.000591475, 0.000701361, -0.0198792, 0.672363, 0.277667
887.25624378600002728, -0.0169386, -0.000590098, 0.000701828, -0.019845, 0.672381, 0.277873
887.2895628480000596, -0.0169317, -0.000590625, 0.000702149, -0.0197964, 0.672575, 0.278083
887.32287643799998023, -0.0169249, -0.000591405, 0.000701164, -0.0197001, 0.672559, 0.278334
887.35634273799996663, -0.0169221, -0.00059225, 0.000701072, -0.0196052, 0.672497, 0.27855
887.38965910499996426, -0.0169158, -0.000592388, 0.000700697, -0.0195241, 0.672672, 0.278639
887.42297541000004912, -0.0169174, -0.000591978, 0.000700871, -0.0194885, 0.672956, 0.27875
887.45629170999995949, -0.0169206, -0.000591987, 0.000701637, -0.0195102, 0.672949, 0.278785
887.48960804800003643, -0.0169119, -0.000591868, 0.000702145, -0.0195068, 0.673171, 0.27891
887.5229244380000182, -0.0169074, -0.000592021, 0.000703367, -0.0195084, 0.67335, 0.279298
887.55624071900001582, -0.0169137, -0.000593081, 0.000704556, -0.0195456, 0.673387, 0.279399
887.58955707200004781, -0.0169243, -0.00059599, 0.000704126, -0.0195625, 0.673215, 0.279507
887.62287340500006394, -0.0169214, -0.000596341, 0.000703674, -0.0195396, 0.673162, 0.279587
887.65618977099995845, -0.0169078, -0.000598362, 0.000701809, -0.019443, 0.673135, 0.279891
887.68965607100005855, -0.0169104, -0.000597996, 0.000701457, -0.0194259, 0.673279, 0.279884
887.72297241000001122, -0.0169357, -0.000597676, 0.000702934, -0.0193861, 0.672889, 0.280044
887.75628874300002735, -0.0169508, -0.000599743, 0.00070347, -0.0193404, 0.672766, 0.280353
887.78960510499996417, -0.0169557, -0.000601382, 0.000703379, -0.0192943, 0.672684, 0.280467
887.82292141000004904, -0.0169656, -0.0006022, 0.000703213, -0.0192631, 0.67255, 0.280382
887.85623770999995941, -0.0169732, -0.000602435, 0.000703812, -0.0192932, 0.672307, 0.280485
