time, bias_gyr_x, bias_gyr_y, bias_gyr_z, bias_acc_x, bias_acc_y, bias_acc_z
-1, 0, 0, 0, 0, 0, 0
-1, 0, 0, 0, 0, 0, 0
55629.508147911008564, 0, 0, 0, 0, 0, 0
55629.541464240006462, 0.00872127, -0.00728673, -0.0186413, -8.72668e-05, -2.21077e-05, 0.000223779
55629.574780616007047, 0.0143751, -0.000822882, -0.0246078, -0.00316177, -0.00213264, 0.000624171
55629.608096878007927, -0.00399921, 0.00443497, -0.0226077, 0.000625344, -0.000531668, 0.00110053
55629.641413273006037, -0.00787028, 0.00939411, -0.0144644, 0.00920466, 0.000197504, 0.0039798
55629.674879606005561, -0.00504462, 0.010011, -0.00656046, 0.0400543, 0.000548642, 0.0141722
55629.708195906008768, -0.00498713, 0.0113195, 0.000894232, 0.0463128, 0.000769225, 0.0165743
55629.741512273008993, -0.00586357, 0.0135992, 0.006847, 0.0684309, 0.00117674, 0.0241936
55629.774828578003508, -0.00481441, 0.012581, 0.00800401, 0.103362, 0.00245908, 0.0357523
55629.808144883005298, -0.00440168, 0.0142451, 0.00775262, 0.113929, 0.00258228, 0.0395527
55629.841461240008357, -0.00219109, 0.0131429, 0.00575032, 0.130876, 0.00305833, 0.0452267
55629.874777573008032, -0.00626102, 0.0129527, 0.0037959, 0.172182, 0.00568062, 0.058417
55629.908093906007707, -0.00690116, 0.012731, 0.0051762, 0.20821, 0.00832123, 0.0701422
55629.941410273007932, -0.00776255, 0.0123192, 0.00561383, 0.228588, 0.00966606, 0.0766694
55629.974726573003863, -0.0103836, 0.0113852, 0.00551573, 0.253339, 0.0114548, 0.0845026
55630.008192944005714, -0.0124958, 0.009364, 0.00541174, 0.24901, 0.011145, 0.0828897
55630.041509273003612, -0.0120687, 0.00777344, 0.00618016, 0.227318, 0.00991016, 0.0756409
55630.074825606003287, -0.0161158, 0.00690071, 0.00539192, 0.23476, 0.0105377, 0.0770706
55630.108141906006495, -0.0167159, 0.00661118, 0.00533715, 0.22964, 0.0102195, 0.0750502
55630.141458216006868, -0.0174509, 0.00626458, 0.00632691, 0.210679, 0.0088545, 0.0675618
55630.174774573009927, -0.0256624, 0.00553519, 0.0074481, 0.203712, 0.00825139, 0.0613314
55630.208090940002876, -0.0302389, 0.0044096, 0.00788827, 0.200873, 0.00828223, 0.0567849
55630.241407273009827, -0.0249428, 0.00445025, 0.00818888, 0.208211, 0.00846625, 0.0634825
55630.274723573005758, -0.0297215, 0.00158787, 0.0080623, 0.214244, 0.00999846, 0.0598765
55630.308039940005983, -0.0338435, 0.000216644, 0.00830656, 0.211254, 0.0117996, 0.0525306
55630.341356240009191, -0.0359403, 0.000416083, 0.00864025, 0.20021, 0.0126221, 0.0488887
55630.37482254900533, -0.0358511, -3.2469e-05, 0.00854172, 0.194065, 0.011952, 0.0486399
55630.408138963008241, -0.0329181, 0.000479892, 0.00866943, 0.204231, 0.0163401, 0.048689
55630.441455244006647, -0.0305814, 0.00206402, 0.00898046, 0.211631, 0.0200018, 0.0491006
55630.474771606008289, -0.0260894, 0.00246759, 0.00850711, 0.21547, 0.0228314, 0.0518407
55630.508087882008113, -0.0232469, 0.000713765, 0.00721072, 0.213803, 0.020652, 0.0526218
55630.541404244009755, -0.0202462, -1.81341e-05, 0.00622619, 0.212321, 0.018458, 0.0524883
55630.574720606004121, -0.0172504, 6.72427e-05, 0.00569357, 0.213091, 0.0194929, 0.0513555
55630.608036882003944, -0.0149245, 4.75921e-06, 0.00492509, 0.215197, 0.0235764, 0.0494121
55630.641353244005586, -0.0128382, 0.000633391, 0.00428814, 0.218903, 0.0316163, 0.0466961
55630.674669606007228, -0.0120178, 0.00177094, 0.00382201, 0.221844, 0.0395312, 0.04402
55630.708135944005335, -0.011969, 0.00230528, 0.00350789, 0.223806, 0.0458584, 0.0429999
55630.741452244008542, -0.0124917, 0.00103772, 0.00304634, 0.220529, 0.0347497, 0.043115
55630.774768606002908, -0.0116783, -0.000218863, 0.00245608, 0.219283, 0.028038, 0.0409425
55630.808084878008231, -0.0107846, -0.00011124, 0.00236338, 0.221695, 0.032406, 0.0391541
55630.841401244004373, -0.0111408, 0.000538172, 0.00271497, 0.224796, 0.0416655, 0.0410257
55630.874717606006016, -0.0110303, 0.00138062, 0.00297172, 0.229428, 0.0551687, 0.0420178
55630.908033940009773, -0.00850757, 0.00215304, 0.0025682, 0.232119, 0.05936, 0.0346282
55630.941350244007481, -0.00847381, 0.000852785, 0.00214653, 0.229755, 0.0502759, 0.0331738
55630.974666611007706, -0.00835463, 0.000550966, 0.00201664, 0.229622, 0.0493192, 0.0325
55631.007982940005604, -0.00821613, 0.000235518, 0.00188665, 0.229571, 0.0485302, 0.031754
55631.041299273005279, -0.00985076, 0.000898319, 0.00267307, 0.230236, 0.056641, 0.0399622
55631.074765606004803, -0.00957321, 0.00243447, 0.00307565, 0.232882, 0.0695419, 0.0424497
55631.10808194000856, -0.00778091, 0.00249557, 0.00256909, 0.234036, 0.0693021, 0.0359835
55631.141398282008595, -0.00717805, 0.000879823, 0.00204942, 0.232158, 0.0567032, 0.031371
55631.17471460600791, -0.00756452, -0.00106248, 0.00166725, 0.229173, 0.0405923, 0.0296339
55631.208030906003842, -0.00848193, -0.00223791, 0.00153435, 0.227314, 0.0287677, 0.0289674
55631.241347273004067, -0.0092576, -0.00297058, 0.00146649, 0.226153, 0.0205454, 0.0281049
55631.274663606003742, -0.00887408, -0.0038794, 0.00105783, 0.225715, 0.0133922, 0.0240954
55631.307979939003417, -0.00787614, -0.00445412, 0.00057259, 0.22562, 0.00498379, 0.0179316
55631.341296273007174, -0.00680546, -0.00465919, 0.000143894, 0.226226, 0.00319253, 0.0140238
55631.374612606006849, -0.00687301, -0.00404822, 0.000260677, 0.227075, 0.0136445, 0.0178635
55631.408078939006373, -0.00732469, -0.00317862, 0.000640876, 0.228527, 0.0284236, 0.0235792
55631.44139523900958, -0.00754408, -0.00289628, 0.000957553, 0.229387, 0.0350018, 0.0260984
55631.474711578004644, -0.0066757, -0.00358651, 0.000516564, 0.227819, 0.0250061, 0.0226781
55631.50802793900948, -0.00559639, -0.00401467, -0.00012387, 0.22692, 0.0187025, 0.0190309
55631.541344273005961, -0.0050644, -0.00404206, -0.000328629, 0.226958, 0.0173752, 0.0172574
55631.574660549005785, -0.00475163, -0.00379815, -0.000305446, 0.229294, 0.0227507, 0.0157204
55631.607976939005312, -0.00445582, -0.00345724, -0.000332032, 0.232949, 0.0301339, 0.0128869
55631.641293239008519, -0.00455153, -0.003244, -0.000359897, 0.236477, 0.0366986, 0.0100161
55631.674609573005, -0.0043264, -0.00316435, -0.000239136, 0.239338, 0.0410168, 0.00720826
55631.707925939008419, -0.00370669, -0.00327033, 5.85603e-06, 0.240038, 0.0420847, 0.00670347
55631.7412422730049, -0.0028368, -0.00346425, 9.75773e-05, 0.237978, 0.040125, 0.00919891
55631.774708577009733, -0.00203125, -0.00364975, 0.000240428, 0.235581, 0.0378859, 0.0121371
55631.808024939004099, -0.00155131, -0.00392616, 0.000284325, 0.23271, 0.0363876, 0.0156333
55631.841341273007856, -0.00105502, -0.00389404, 0.00040227, 0.232789, 0.036775, 0.015967
55631.874657573003788, -0.00051109, -0.00386654, 0.000542992, 0.232524, 0.0367594, 0.0164356
55631.907973882007354, 0.000133152, -0.00366903, 0.000712007, 0.232995, 0.0382436, 0.0172678
55631.941290239003138, -0.000197624, -0.00350663, 0.000902172, 0.233129, 0.0414995, 0.0218332
55631.974606577008672, -0.000287842, -0.00345255, 0.00109294, 0.232677, 0.043363, 0.0259301
55632.00792290600657, -0.000637593, -0.00347427, 0.00122305, 0.231876, 0.0439835, 0.029578
55632.041239273006795, -0.000563301, -0.00349769, 0.00127101, 0.231599, 0.0446564, 0.0310562
55632.074555577004503, -8.32557e-05, -0.00346847, 0.00123304, 0.232122, 0.0459033, 0.0295594
55632.108021939005994, 0.000281524, -0.00350032, 0.00116192, 0.233779, 0.0459651, 0.0234052
55632.141338273009751, 0.000132191, -0.00377454, 0.00106192, 0.234268, 0.0422451, 0.0198483
55632.174654606009426, 0.000185312, -0.00384459, 0.00104457, 0.234729, 0.0415771, 0.0180693
55632.207970939009101, 0.000415496, -0.00372884, 0.000956941, 0.235749, 0.0426752, 0.0147006
55632.241287211007148, 0.000735265, -0.00321765, 0.00103041, 0.232675, 0.0507359, 0.0294644
55632.274603616009699, 0.0011275, -0.00268645, 0.00111739, 0.229658, 0.0590649, 0.0439105
55632.307919939004933, 0.00147277, -0.00286771, 0.000944189, 0.234021, 0.0577208, 0.0272965
55632.34123627300869, 0.00173411, -0.00365105, 0.000625249, 0.241044, 0.0513402, 0.000260898
55632.374552611006948, 0.00171429, -0.00386248, 0.000573142, 0.242737, 0.0500937, -0.00620422
55632.40786893900804, 0.00127765, -0.00355747, 0.000836744, 0.238184, 0.0524348, 0.011043
55632.44133523900382, 0.00083062, -0.00349484, 0.00101122, 0.23414, 0.0521187, 0.0292083
55632.474651577009354, 0.000376422, -0.00360249, 0.00106184, 0.232284, 0.0519835, 0.0376124
55632.507967906007252, 9.82391e-05, -0.00375551, 0.00110629, 0.232346, 0.0511908, 0.0366025
55632.541284220009402, 5.73744e-05, -0.00389515, 0.00115729, 0.232746, 0.0503967, 0.0343437
55632.574600606007152, -5.7644e-05, -0.00406313, 0.00116696, 0.233914, 0.0492021, 0.0287058
55632.607916939006827, -9.01742e-05, -0.00440691, 0.00105978, 0.235719, 0.0478805, 0.0207139
55632.641233225003816, 3.78829e-05, -0.00466166, 0.000935091, 0.237392, 0.0468303, 0.013795
55632.674549606002984, 0.00038128, -0.00470369, 0.000820676, 0.238738, 0.046449, 0.00833211
55632.707865939009935, 0.0010131, -0.00469, 0.000660488, 0.240219, 0.0466793, 0.00319668
55632.741182273006416, 0.00169324, -0.00440877, 0.000556437, 0.241002, 0.048411, 0.000869313
55632.774498606006091, 0.00220106, -0.00429532, 0.000460959, 0.244516, 0.0472161, -0.0126017
55632.807964939005615, 0.00232946, -0.00412488, 0.000426582, 0.246367, 0.0457082, -0.0198687
55632.841281211003661, 0.0022234, -0.00387371, 0.000443605, 0.245914, 0.0453107, -0.0194013
55632.87459757700708, 0.00244244, -0.00364308, 0.00058498, 0.2435, 0.0483471, -0.0122967
55632.907913906004978, 0.00237285, -0.00360701, 0.000571232, 0.242581, 0.0495152, -0.00896795
55632.941230273005203, 0.00238652, -0.00356462, 0.000569288, 0.241518, 0.0515044, -0.00511428
55632.974546754005132, 0.00234938, -0.00343158, 0.000584302, 0.240135, 0.0551078, -0.00069217
55633.007862906008086, 0.00217959, -0.00326867, 0.000655821, 0.238084, 0.0582569, 0.00510571
55633.041179244006344, 0.00200395, -0.00326057, 0.000747087, 0.237402, 0.055777, 0.00602809
55633.074495606007986, 0.00197324, -0.00317494, 0.00085319, 0.236616, 0.055648, 0.00758777
55633.107811939007661, 0.0020867, -0.00288035, 0.000958703, 0.23353, 0.0637008, 0.0173789
55633.141278273003991, 0.00245192, -0.00261291, 0.000987452, 0.232742, 0.0715656, 0.0200229
55633.174594573007198, 0.00252855, -0.00234741, 0.000993901, 0.230918, 0.0793488, 0.0252028
55633.207910911005456, 0.00237646, -0.00217584, 0.000962981, 0.230273, 0.0828902, 0.0256521
55633.241227273007098, 0.00232137, -0.00204444, 0.000971246, 0.230555, 0.084763, 0.0233543
55633.274543606006773, 0.00211718, -0.00199041, 0.000888393, 0.23138, 0.0833523, 0.0195665
55633.307859911008563, 0.00193736, -0.0019117, 0.000703591, 0.230297, 0.0891607, 0.0227808
55633.34117627300293, 0.0018147, -0.00188184, 0.000563481, 0.229027, 0.0954943, 0.0265428
55633.374492572009331, 0.00176879, -0.00185867, 0.000423531, 0.228303, 0.1022, 0.0287305
55633.407808882009704, 0.00174955, -0.00181746, 0.000368258, 0.22645, 0.111548, 0.0345731
55633.441125211007602, 0.00174236, -0.00181633, 0.000342091, 0.224555, 0.1175, 0.0415355
55633.474441572005162, 0.00164446, -0.00179101, 0.00030419, 0.223856, 0.11973, 0.0437186
55633.507907906008768, 0.00150152, -0.00178007, 0.000276863, 0.222405, 0.12188, 0.0484557
55633.541224244007026, 0.00137615, -0.00183543, 0.000294282, 0.222358, 0.118824, 0.0485073
55633.574540577006701, 0.00147857, -0.00194609, 0.000309726, 0.225336, 0.109949, 0.0388864
55633.607856939008343, 0.0013629, -0.00205603, 0.000301844, 0.227723, 0.102145, 0.0308554
55633.641173239004274, 0.000942801, -0.00205813, 0.000329553, 0.22776, 0.0998658, 0.030389
55633.674489606004499, 0.000877488, -0.00200629, 0.000362624, 0.225155, 0.104853, 0.0390085
55633.707805939004174, 0.000833099, -0.00196513, 0.000347926, 0.224477, 0.106281, 0.0413667
55633.74112227200385, 0.000740807, -0.00190226, 0.00032548, 0.223127, 0.108468, 0.0463116
55633.774438572007057, 0.000809822, -0.0018546, 0.000305563, 0.222956, 0.108956, 0.0469534
55633.807754911009397, 0.00141245, -0.00173533, 0.00019681, 0.222491, 0.109804, 0.0486163
55633.841221249007504, 0.00156713, -0.00164073, 0.000166302, 0.221446, 0.110925, 0.0527634
55633.874537606003287, 0.0017888, -0.00162167, 7.94341e-05, 0.221283, 0.111021, 0.0530457
55633.90785388200311, 0.00154612, -0.00169509, 3.97051e-05, 0.22234, 0.111361, 0.0488912
55633.941170272009913, 0.0012871, -0.00164232, 0.000182246, 0.22365, 0.110043, 0.0454235
55633.974486572005844, 0.00106157, -0.00162937, 0.000217714, 0.225995, 0.11052, 0.0372653
55634.007802939006069, 0.00110404, -0.00168488, 0.000225154, 0.226885, 0.11229, 0.0333395
55634.0411152470042, 0.00120134, -0.0017409, 0.000228962, 0.228014, 0.114493, 0.0282077
55634.074427649007703, 0.000861254, -0.00180716, 0.000295303, 0.229969, 0.115877, 0.0221448
55634.10774001700338, 0.001159, -0.00182156, 0.000291376, 0.225197, 0.115672, 0.039385
55634.141055452004366, 0.00114867, -0.00178099, 0.000292568, 0.22471, 0.114662, 0.0417917
55634.174514737009304, 0.00101007, -0.00179934, 0.000335361, 0.224061, 0.11594, 0.0452411
55634.207827105004981, 0.000663776, -0.00181504, 0.000371443, 0.225212, 0.116324, 0.0423364
55634.241139446006855, 0.00107033, -0.00186421, 0.000352766, 0.224385, 0.115947, 0.0434243
55634.274451814009808, 0.000653048, -0.00198312, 0.000291244, 0.228148, 0.106272, 0.0285495
55634.307764212004258, 0.000343534, -0.00196239, 0.000283897, 0.231113, 0.0982296, 0.0181014
55634.341076552009326, 0.000359304, -0.0018998, 0.000296136, 0.229835, 0.104421, 0.0231766
55634.374388939009805, 6.18557e-06, -0.00182071, 0.000315756, 0.230417, 0.106653, 0.0221345
55634.40770131800673, -5.46004e-06, -0.00173639, 0.000251253, 0.229076, 0.114346, 0.0266638
55634.441013658004522, 0.00036358, -0.00173266, 0.00016872, 0.226745, 0.12884, 0.0333849
55634.47432608800591, 0.000193029, -0.00171576, 0.000191937, 0.226986, 0.130944, 0.0327278
55634.507638424009201, -1.3043e-05, -0.00172449, 0.000227446, 0.227578, 0.122836, 0.0316158
55634.54110074100754, -0.000157933, -0.00172224, 0.000240781, 0.228116, 0.124763, 0.0299143
55634.574413143003767, -0.000333327, -0.00174451, 0.000222013, 0.229523, 0.152712, 0.0235203
55634.607725512003526, -0.000707964, -0.00177547, 0.000232443, 0.23127, 0.177135, 0.0164658
55634.641037881003285, -0.00117914, -0.00176578, 0.000266975, 0.231785, 0.180269, 0.0148595
55634.674350192006386, -0.00149359, -0.00176672, 0.000337273, 0.234375, 0.197633, 0.00618527
55634.70766262300458, -0.00166666, -0.00182848, 0.000351347, 0.237152, 0.215705, -0.00307811
55634.740974953005207, -0.0018145, -0.00191717, 0.000320609, 0.23952, 0.231151, -0.0109779
55634.774287351006933, -0.0020055, -0.00198684, 0.000364143, 0.240907, 0.240468, -0.015538
55634.807599724008469, -0.00203371, -0.00201368, 0.000438519, 0.241028, 0.24303, -0.0161001
55634.840912059007678, -0.00196312, -0.00203037, 0.000380009, 0.242936, 0.249065, -0.0217283
55634.87437441500515, -0.00188299, -0.00204366, 0.000315507, 0.24309, 0.249973, -0.0223746
55634.90768681201007, -0.00179018, -0.00205997, 0.00031569, 0.239201, 0.241719, -0.0119116
55634.940999181009829, -0.00177799, -0.00208648, 0.000262385, 0.235526, 0.235154, -0.00235869
55634.974311521007621, -0.00173363, -0.00211997, 0.000173267, 0.233965, 0.23323, 0.00136891
55635.007623918005265, -0.00173374, -0.00213415, 0.000174444, 0.236808, 0.238926, -0.00575075
55635.040940363003756, -0.00177961, -0.00213572, 0.000176636, 0.237648, 0.240007, -0.00734648
55635.074256696003431, -0.00182152, -0.00211667, 0.000157178, 0.238434, 0.240476, -0.00882363
55635.107573058005073, -0.0018021, -0.00207866, 0.000124371, 0.239786, 0.241109, -0.0111726
55635.14088935800828, -0.0017349, -0.00214336, 0.000144469, 0.237878, 0.242284, -0.00853613
55635.174205725008505, -0.00188537, -0.00228678, 0.000139177, 0.234347, 0.244992, -0.00423855
55635.20752205800818, -0.00189435, -0.00231054, 0.000155755, 0.23438, 0.245662, -0.00461659
55635.240988363009819, -0.00199462, -0.00229451, 0.000161145, 0.234346, 0.244002, -0.00140865
55635.274304725004185, -0.0021737, -0.00218403, 0.000195848, 0.23445, 0.240104, 0.000910127
55635.307621058003861, -0.00241101, -0.00213934, 0.000242134, 0.234532, 0.238584, 0.00124879
55635.340937358007068, -0.00268401, -0.00212859, 0.000327757, 0.234656, 0.23794, 0.000462755
55635.374253691006743, -0.00293752, -0.0021774, 0.000354685, 0.235618, 0.239551, -0.00641174
55635.407570058006968, -0.00278334, -0.00216851, 0.00037116, 0.235014, 0.239693, -0.00379172
55635.440886391006643, -0.00274321, -0.00207513, 0.00034473, 0.232694, 0.24093, 0.00603501
55635.474202725003124, -0.00274348, -0.00204146, 0.000330738, 0.230618, 0.24249, 0.0140615
55635.507519001002947, -0.00286468, -0.00200521, 0.000379272, 0.228312, 0.241515, 0.0193194
55635.540835358006007, -0.00278562, -0.00191332, 0.000395264, 0.226783, 0.246382, 0.0227444
55635.574301663007645, -0.00268373, -0.00189482, 0.000311318, 0.230661, 0.253219, 0.0118674
55635.607618058005755, -0.00284721, -0.00195188, 0.000283625, 0.235333, 0.246233, -0.00118777
55635.64093439100543, -0.00313484, -0.00203161, 0.000307257, 0.238634, 0.226173, -0.00845292
55635.674250691008638, -0.00315043, -0.00202805, 0.000323597, 0.241283, 0.221463, -0.0156972
55635.707567058008863, -0.00315955, -0.00202942, 0.000318113, 0.240192, 0.219535, -0.0121946
55635.740883391008538, -0.00314513, -0.00204391, 0.000315334, 0.244232, 0.213405, -0.0217554
55635.774199696003052, -0.00312258, -0.00203055, 0.000284395, 0.268166, 0.225213, -0.0922301
55635.807516058004694, -0.00318727, -0.00203781, 0.000262724, 0.279498, 0.233334, -0.126289
55635.840832363006484, -0.00321088, -0.0020702, 0.000245161, 0.284193, 0.233365, -0.13859
55635.874148696006159, -0.00310933, -0.00212987, 0.000234844, 0.287737, 0.237049, -0.147064
55635.907465058007801, -0.00321911, -0.00213505, 0.000229016, 0.289149, 0.215707, -0.145787
55635.940931391007325, -0.00329093, -0.0020778, 0.000275162, 0.293913, 0.193791, -0.155622
55635.974247696009115, -0.00332499, -0.00208666, 0.000249492, 0.296263, 0.204617, -0.164808
55636.00756400100363, -0.00333417, -0.00207078, 0.000277296, 0.294379, 0.189384, -0.156292
55636.040880358006689, -0.00330871, -0.00207614, 0.000297867, 0.293053, 0.18001, -0.150056
55636.074196724010108, -0.00324658, -0.00207541, 0.000291723, 0.296941, 0.184776, -0.161758
55636.107513058006589, -0.00331223, -0.00206594, 0.000327734, 0.295171, 0.174994, -0.155453
55636.140829391006264, -0.00340038, -0.00204581, 0.000354482, 0.296498, 0.166008, -0.15898
55636.174145724005939, -0.00329034, -0.00204394, 0.000354738, 0.298475, 0.167024, -0.164202
55636.207462024009146, -0.00322556, -0.00203451, 0.000397201, 0.298413, 0.165867, -0.164129
55636.240778391009371, -0.00313376, -0.00203299, 0.000442006, 0.298488, 0.164363, -0.164843
55636.274244696003734, -0.00311491, -0.00200743, 0.000476209, 0.297722, 0.166446, -0.16413
55636.307561024004826, -0.00308682, -0.00201681, 0.000513497, 0.295424, 0.164197, -0.158992
55636.340877334005199, -0.00311314, -0.00203712, 0.000512664, 0.291804, 0.164421, -0.150975
55636.374193724004726, -0.00311298, -0.00201712, 0.00052094, 0.289936, 0.166075, -0.147377
55636.407510058008484, -0.0030617, -0.0020331, 0.000551192, 0.286426, 0.164666, -0.138384
55636.440826362006192, -0.00310675, -0.00205234, 0.000565951, 0.284607, 0.163296, -0.133364
55636.474142724007834, -0.00313608, -0.00206729, 0.000607081, 0.285207, 0.161915, -0.134312
55636.507459024003765, -0.00321182, -0.0020931, 0.000627643, 0.286386, 0.160647, -0.136692
55636.54077539100399, -0.00328808, -0.0020986, 0.000622585, 0.2833, 0.158323, -0.127923
55636.574091724003665, -0.00340576, -0.00206951, 0.000672534, 0.282156, 0.15718, -0.124646
55636.607408029005455, -0.00344087, -0.00207135, 0.000681336, 0.28304, 0.157684, -0.127098
55636.640874358003202, -0.00355604, -0.00209802, 0.000705503, 0.286207, 0.158746, -0.135619
55636.674190724006621, -0.00358854, -0.00202215, 0.000730631, 0.281432, 0.158199, -0.122833
55636.70750700100325, -0.00356196, -0.00193462, 0.000778108, 0.27221, 0.154066, -0.0969579
55636.740823391010053, -0.00352037, -0.00192294, 0.000817172, 0.271176, 0.152889, -0.0936975
55636.774139724009729, -0.00347521, -0.0018732, 0.000845494, 0.268748, 0.154327, -0.0875144
55636.807456086004095, -0.00352761, -0.00184141, 0.000906212, 0.269371, 0.159726, -0.0904105
55636.840772391005885, -0.0036747, -0.00186054, 0.000957388, 0.273922, 0.164048, -0.103566
55636.874088696007675, -0.0036887, -0.00184535, 0.00103205, 0.277495, 0.17624, -0.116398
55636.907405058009317, -0.00352199, -0.00179669, 0.00108483, 0.27284, 0.179036, -0.10404
55636.940721391008992, -0.00329724, -0.00174356, 0.00112611, 0.26661, 0.184866, -0.0883203
55636.974187696003355, -0.00306583, -0.0017045, 0.00119612, 0.262371, 0.194365, -0.0789402
55637.007504058004997, -0.00273397, -0.0016636, 0.00130748, 0.256691, 0.21475, -0.0682578
55637.040820391004672, -0.00277672, -0.0016867, 0.00137558, 0.259848, 0.236395, -0.0823741
55637.074136724004347, -0.00266152, -0.00169848, 0.00143955, 0.259619, 0.254515, -0.0864539
55637.107453029006138, -0.00252897, -0.00171148, 0.00150384, 0.25783, 0.272129, -0.0857866
55637.140769358004036, -0.00244029, -0.00172985, 0.00155063, 0.256731, 0.285956, -0.0861403
55637.174085691003711, -0.00239305, -0.00177648, 0.00159232, 0.256992, 0.311393, -0.0936764
55637.207402029009245, -0.0024084, -0.00182669, 0.00165286, 0.260001, 0.33474, -0.107949
55637.240718358007143, -0.00251866, -0.00183084, 0.00167022, 0.264585, 0.331727, -0.119723
55637.274034724003286, -0.00275921, -0.00186349, 0.00169533, 0.271349, 0.343126, -0.141062
55637.307351029005076, -0.00268031, -0.00187496, 0.00169833, 0.269146, 0.348604, -0.136516
55637.340817358010099, -0.00272425, -0.00185867, 0.00169769, 0.271141, 0.343424, -0.140765
55637.374133724006242, -0.00255725, -0.00181955, 0.0017148, 0.269317, 0.32865, -0.132211
55637.407450058009999, -0.00250048, -0.0017883, 0.00170145, 0.269339, 0.313381, -0.129119
55637.440766358005931, -0.0023675, -0.00176217, 0.00173107, 0.267185, 0.298344, -0.118922
55637.474082691005606, -0.00244974, -0.00177856, 0.0017056, 0.265825, 0.298662, -0.114845
55637.507399029003864, -0.00255302, -0.00181767, 0.00166583, 0.264866, 0.308433, -0.114834
55637.540715391005506, -0.00249781, -0.00184462, 0.00166356, 0.262541, 0.305844, -0.108201
55637.574031691008713, -0.00258277, -0.00185553, 0.00164045, 0.262382, 0.303019, -0.10697
55637.607348058008938, -0.00255185, -0.0019142, 0.00161706, 0.260578, 0.306928, -0.104283
55637.640664391008613, -0.00259281, -0.0019763, 0.00157819, 0.258581, 0.320136, -0.10295
55637.674130724008137, -0.00266105, -0.00206622, 0.00151247, 0.256309, 0.338801, -0.102984
55637.707447024004068, -0.00264133, -0.00227021, 0.00143186, 0.250123, 0.377303, -0.0989194
55637.740763391004293, -0.00255288, -0.00236953, 0.00141631, 0.247719, 0.390248, -0.0974014
55637.774079691007501, -0.00251851, -0.00241073, 0.00142262, 0.246797, 0.393929, -0.0962767
55637.807396029005758, -0.00247117, -0.00256701, 0.00142989, 0.243218, 0.410254, -0.0920331
55637.840712358003657, -0.00245388, -0.00267592, 0.0014346, 0.241235, 0.419813, -0.0898943
55637.874028696009191, -0.00246724, -0.00282068, 0.00141542, 0.237097, 0.44297, -0.0859536
55637.907345096005884, -0.00248098, -0.00298625, 0.00143879, 0.234517, 0.45803, -0.0837609
55637.940661391003232, -0.00254125, -0.00324404, 0.0014071, 0.23001, 0.484491, -0.0799335
55637.973977724002907, -0.00253552, -0.00332806, 0.00141154, 0.228007, 0.496452, -0.078291
55638.007294029004697, -0.00265468, -0.00356429, 0.00135283, 0.223081, 0.524893, -0.0737869
55638.040760391006188, -0.00267262, -0.0036866, 0.00135564, 0.220498, 0.540968, -0.0718535
55638.074076724005863, -0.00269701, -0.00380972, 0.00134264, 0.216085, 0.565406, -0.067794
55638.107393057005538, -0.00274567, -0.00388884, 0.00132809, 0.214496, 0.57486, -0.0664314
55638.140709362007328, -0.00271813, -0.00391437, 0.00135311, 0.213739, 0.580209, -0.0662074
55638.174025691005227, -0.00263586, -0.00397149, 0.00141477, 0.210961, 0.596758, -0.0644731
55638.207342057008645, -0.00256286, -0.00400012, 0.00147754, 0.209717, 0.605815, -0.0643953
55638.240658357004577, -0.00259232, -0.00405873, 0.00146373, 0.208216, 0.613446, -0.0627243
55638.273974724004802, -0.00260381, -0.0040981, 0.00144843, 0.206076, 0.621944, -0.0598115
55638.307291024008009, -0.00259248, -0.00414853, 0.00147195, 0.203658, 0.633386, -0.0573804
55638.340607391008234, -0.00258252, -0.00419399, 0.00149306, 0.202412, 0.640298, -0.0563793
55638.374073724007758, -0.00247917, -0.00423856, 0.00157305, 0.201135, 0.648834, -0.0560514
55638.407390029009548, -0.0024231, -0.00422113, 0.00161834, 0.200989, 0.65002, -0.0564344
55638.440706391003914, -0.0021881, -0.00420345, 0.00177907, 0.198831, 0.659284, -0.0549252
55638.474022724003589, -0.00188499, -0.0042016, 0.00197055, 0.196005, 0.670677, -0.052351
55638.507339062009123, -0.00177799, -0.00421537, 0.00204533, 0.195749, 0.673833, -0.05292
55638.540655367003637, -0.00164887, -0.00418561, 0.0021158, 0.194706, 0.675524, -0.0512888
55638.573971724006697, -0.00153172, -0.00413618, 0.00217082, 0.194167, 0.674857, -0.0501775
55638.60728803400707, -0.00132303, -0.00405902, 0.00226377, 0.193092, 0.673745, -0.0477909
55638.640604391010129, -0.00112402, -0.0040246, 0.00235929, 0.192036, 0.67445, -0.0457434
55638.67392069100606, -0.000735156, -0.00393884, 0.00255479, 0.192334, 0.673365, -0.0468782
55638.707387029004167, -0.000462431, -0.00385919, 0.00265936, 0.191151, 0.67142, -0.0437062
55638.740703391005809, -3.44239e-05, -0.00371978, 0.00284993, 0.191955, 0.667946, -0.0453437
55638.774019724005484, 0.000397466, -0.00361244, 0.00304394, 0.192718, 0.665859, -0.0470444
55638.807336057005159, 0.000772551, -0.00350956, 0.00316664, 0.191506, 0.662962, -0.0432737
55638.840652338003565, 0.00112303, -0.00341115, 0.00330079, 0.191691, 0.662273, -0.0436355
55638.873968724008591, 0.00127538, -0.00338453, 0.00338775, 0.192944, 0.66491, -0.0475052
55638.907285057008266, 0.00143581, -0.00336331, 0.00344358, 0.192997, 0.666323, -0.0479728
55638.940601329006313, 0.00163579, -0.0032941, 0.00348875, 0.192931, 0.667931, -0.0482799
55638.973917691007955, 0.00159582, -0.00328173, 0.00345663, 0.193023, 0.669409, -0.0491073
55639.007234029006213, 0.00151723, -0.00330829, 0.00343997, 0.193456, 0.670635, -0.0505198
55639.040550391007855, 0.00135114, -0.00332529, 0.00337589, 0.193812, 0.671061, -0.0518536
55639.074016695005412, 0.00124574, -0.00332138, 0.00332255, 0.193827, 0.670765, -0.0522474
55639.10733302400331, 0.00103655, -0.00333874, 0.00324497, 0.194512, 0.664213, -0.0529859
55639.140649343004043, 0.000864069, -0.003345, 0.00317036, 0.195072, 0.657952, -0.0536093
55639.17396572400321, 0.000620551, -0.00335877, 0.00308477, 0.196172, 0.654686, -0.0563648
55639.207282029005, 0.00053683, -0.00335608, 0.00303739, 0.196129, 0.651316, -0.056075
55639.240598391006642, 0.000499103, -0.00335549, 0.00301744, 0.196224, 0.649732, -0.0562206
55639.273914695004351, 0.000548444, -0.00335445, 0.00301232, 0.196095, 0.645751, -0.0556823
55639.307231057005993, 0.000621897, -0.00335672, 0.00301258, 0.195902, 0.639603, -0.054614
55639.34054739100975, 0.000651065, -0.00336348, 0.00300757, 0.195787, 0.636129, -0.0540717
55639.373863691005681, 0.000805867, -0.00337396, 0.00304259, 0.195494, 0.632178, -0.0531185
55639.407330024005205, 0.000863524, -0.00340408, 0.00304727, 0.194397, 0.633891, -0.0513112
55639.44064639100543, 0.000655317, -0.00342188, 0.00295039, 0.193851, 0.638255, -0.0519505
55639.47396266200667, 0.000717573, -0.00344611, 0.00296032, 0.193134, 0.640805, -0.0512711
55639.507279000004928, 0.000736387, -0.0035134, 0.00293705, 0.191781, 0.646058, -0.0503388
55639.54059536200657, 0.000661391, -0.00362827, 0.00284823, 0.188066, 0.665941, -0.0479815
55639.573911691004469, 0.000752976, -0.00368029, 0.00287186, 0.186559, 0.674476, -0.046842
55639.607228057007887, 0.000766972, -0.0037759, 0.0028503, 0.184513, 0.686616, -0.0457628
55639.640544357003819, 0.000626363, -0.0038736, 0.00275994, 0.182238, 0.699645, -0.0443602
55639.673860691007576, 0.000562487, -0.00398145, 0.00270626, 0.179526, 0.716065, -0.0427701
55639.707177029005834, 0.000550753, -0.00404522, 0.00268706, 0.178149, 0.72455, -0.0419437
55639.740493357006926, 0.000564045, -0.00422929, 0.0026842, 0.175238, 0.744747, -0.0406434
55639.773959724007, 0.000517034, -0.0043812, 0.00266113, 0.172909, 0.760914, -0.0394759
55639.807276024002931, 0.000439497, -0.00439484, 0.00261637, 0.172245, 0.763095, -0.0383869
55639.840592357009882, 0.000422919, -0.00443623, 0.00260829, 0.171088, 0.769999, -0.0375879
55639.873908724010107, 0.000433132, -0.00450278, 0.00261563, 0.169816, 0.778919, -0.0370413
55639.90722500000993, 0.000315537, -0.00460391, 0.0025568, 0.167407, 0.791772, -0.0345826
55639.940541391006263, 0.000242361, -0.0046388, 0.00252166, 0.165947, 0.79809, -0.0328223
55639.973857724005939, 0.000216854, -0.00466824, 0.00250599, 0.164782, 0.803355, -0.0314807
55640.007174000005762, 0.00020116, -0.00465239, 0.00249224, 0.164295, 0.803691, -0.0305149
55640.040490391009371, 7.18546e-05, -0.00464409, 0.00241663, 0.162611, 0.805816, -0.0269755
55640.073807291009871, 0.000179359, -0.00467271, 0.00247537, 0.161802, 0.812144, -0.027233
55640.107273067005735, 0.000255956, -0.00468859, 0.00250417, 0.160083, 0.818604, -0.0252914
55640.140589357004501, 0.000399247, -0.00465668, 0.00256984, 0.158407, 0.822739, -0.0233839
55640.173906176009041, 0.000504343, -0.00462817, 0.00261669, 0.158247, 0.822743, -0.023491
55640.207222029006516, 0.000605512, -0.00462439, 0.0026654, 0.158411, 0.823749, -0.0244393
55640.240538362006191, 0.000816152, -0.00464917, 0.00276553, 0.157552, 0.829512, -0.0244354
55640.273854724007833, 0.000956899, -0.00464644, 0.00283678, 0.156747, 0.832281, -0.0237698
55640.307171024003765, 0.0010867, -0.00459672, 0.0028936, 0.156161, 0.831009, -0.0226483
55640.340487362009299, 0.00122206, -0.00456028, 0.0029542, 0.155833, 0.8305, -0.0222187
55640.373803695008974, 0.0011823, -0.0046105, 0.00293504, 0.154861, 0.833785, -0.0204194
55640.40712005700334, 0.00118265, -0.00462172, 0.00293679, 0.15467, 0.834719, -0.0201881
55640.440436390003015, 0.00141608, -0.00459794, 0.00304593, 0.155267, 0.83636, -0.0224754
55640.473903290003364, 0.00151091, -0.00458805, 0.00309274, 0.156134, 0.838826, -0.0254612
55640.507219029008411, 0.00164694, -0.00454768, 0.00313966, 0.156572, 0.838484, -0.0266286
55640.540535362008086, 0.00174372, -0.0045099, 0.0031691, 0.156858, 0.837913, -0.0273026
55640.573851724009728, 0.00183288, -0.00451262, 0.0032075, 0.157124, 0.840472, -0.028614
55640.607167995003692, 0.00185553, -0.00450715, 0.00321151, 0.157088, 0.840271, -0.0284659
55640.640484390009078, 0.00170964, -0.0045677, 0.00318388, 0.157764, 0.845614, -0.0316969
55640.673800733005919, 0.00160978, -0.00457049, 0.00315166, 0.158012, 0.846176, -0.0326067
55640.707117057005235, 0.00151626, -0.00454763, 0.0031114, 0.158282, 0.845796, -0.0334673
55640.740433362007025, 0.00126746, -0.00454724, 0.00301324, 0.15827, 0.841353, -0.0326442
55640.77374968600634, 0.000901855, -0.00459845, 0.00289898, 0.159027, 0.841119, -0.0351436
55640.807216028006223, 0.00063442, -0.00462044, 0.00280526, 0.159457, 0.838618, -0.0362425
55640.840532390007866, 0.000540332, -0.0046235, 0.00277228, 0.159516, 0.837468, -0.0363237
55640.873848705006822, 0.000350471, -0.00464072, 0.0027134, 0.159961, 0.836649, -0.0376583
55640.907165057004022, 0.000162405, -0.00465287, 0.00264265, 0.160428, 0.832636, -0.0386286
55640.940481362005812, -2.21782e-05, -0.00466001, 0.00257305, 0.160687, 0.829313, -0.0390801
55640.973800695006503, -0.000211792, -0.0046685, 0.00250525, 0.161184, 0.827149, -0.040401
55641.007114028005162, -0.000489352, -0.00466792, 0.00239023, 0.161951, 0.823426, -0.0427994
55641.040430390006804, -0.00061009, -0.00468179, 0.00233706, 0.162427, 0.818931, -0.0437772
55641.073746724003286, -0.000714825, -0.00468264, 0.00228851, 0.162366, 0.818279, -0.0440346
55641.10706302800827, -0.000913318, -0.00469348, 0.00220597, 0.162868, 0.815145, -0.0454989
55641.140379357006168, -0.00119835, -0.00469972, 0.00209157, 0.163475, 0.812552, -0.0475219
55641.173845690005692, -0.00118239, -0.00472177, 0.00207056, 0.16301, 0.81255, -0.0472315
55641.207162057005917, -0.00123012, -0.00472686, 0.00204671, 0.16298, 0.812559, -0.0474625
55641.240478390005592, -0.00139038, -0.00476686, 0.00195995, 0.162514, 0.813805, -0.0478093
55641.273794695007382, -0.00153537, -0.0047973, 0.00188823, 0.161801, 0.816964, -0.0476209
55641.307111057009024, -0.00154087, -0.00483008, 0.00187495, 0.161242, 0.819759, -0.0472727
55641.340427362003538, -0.00157597, -0.00484542, 0.00185946, 0.161104, 0.820509, -0.0472558
55641.373743695003213, -0.00152443, -0.00489834, 0.00186699, 0.159924, 0.827887, -0.0465026
55641.407060024008388, -0.00162105, -0.00495105, 0.00181114, 0.158395, 0.83654, -0.0453236
55641.440376362006646, -0.0016588, -0.00504651, 0.00177451, 0.156753, 0.847181, -0.0442408
55641.473692695006321, -0.00184754, -0.00505963, 0.00168009, 0.155033, 0.855044, -0.0423167
55641.507159028005844, -0.0019344, -0.00509384, 0.00163837, 0.153937, 0.861503, -0.0413312
55641.540475390007487, -0.00206295, -0.00509909, 0.00157066, 0.153064, 0.864066, -0.0396235
55641.573791695009277, -0.00221471, -0.00514414, 0.00149071, 0.151686, 0.870443, -0.0374467
55641.607108028008952, -0.00240168, -0.00511181, 0.00140013, 0.150799, 0.870263, -0.0349843
55641.640424390003318, -0.00253869, -0.0051293, 0.00133311, 0.149898, 0.873089, -0.0330774
55641.673740695005108, -0.00261429, -0.00517149, 0.00129899, 0.148913, 0.879047, -0.031981
55641.707057000006898, -0.00271163, -0.0052453, 0.00125382, 0.14685, 0.891856, -0.0301316
55641.74037336200854, -0.00283808, -0.00524172, 0.00119134, 0.145838, 0.89371, -0.027859
55641.773689724002907, -0.00292026, -0.00521139, 0.00113908, 0.145583, 0.890111, -0.025823
55641.807006057009858, -0.00295918, -0.00527689, 0.00112405, 0.144643, 0.897808, -0.0252022
55641.840322390009533, -0.00293917, -0.00529236, 0.00114667, 0.143988, 0.903349, -0.0257374
55641.873788724005863, -0.00277954, -0.00521979, 0.00123687, 0.14438, 0.901882, -0.0283278
55641.907105057005538, -0.00265165, -0.005133, 0.00130364, 0.145069, 0.896659, -0.0302127
55641.940421390005213, -0.00262048, -0.00510177, 0.0013102, 0.145105, 0.894362, -0.0299436
55641.973737695007003, -0.0025145, -0.00504546, 0.00133305, 0.145339, 0.889708, -0.0295422
55642.007054028006678, -0.00239734, -0.00499925, 0.00137312, 0.145816, 0.886314, -0.0303823
55642.040370357004576, -0.00235333, -0.004968, 0.00139493, 0.145799, 0.884736, -0.030546
55642.073686724004801, -0.00238527, -0.00497792, 0.00137305, 0.144993, 0.886317, -0.0287428
55642.107003028009785, -0.00237164, -0.00495468, 0.00137568, 0.144941, 0.884466, -0.0283581
55642.1403193330043, -0.00237093, -0.0049181, 0.00136791, 0.145315, 0.880436, -0.028279
55642.173635690007359, -0.00227854, -0.00483198, 0.00140018, 0.146926, 0.872022, -0.0306686
55642.207102057007432, -0.00219321, -0.00478772, 0.00143958, 0.147587, 0.868731, -0.0321049
55642.240418390007108, -0.00212564, -0.00476309, 0.00147336, 0.148454, 0.867207, -0.0342132
55642.273734690003039, -0.00221096, -0.00477693, 0.00142904, 0.148801, 0.867229, -0.0344028
55642.307051024006796, -0.00217538, -0.00472365, 0.0014326, 0.149119, 0.862459, -0.0341866
55642.340367333003087, -0.00220482, -0.00471875, 0.00140506, 0.148698, 0.861252, -0.0325542
55642.373683709003672, -0.00233718, -0.00467733, 0.00134122, 0.149496, 0.856105, -0.0330906
55642.407000057006371, -0.00237678, -0.00468658, 0.0013267, 0.149708, 0.856762, -0.0336846
55642.440316390006046, -0.00256916, -0.00471835, 0.0012609, 0.149885, 0.857939, -0.0342018
55642.473632690009254, -0.00266798, -0.00470536, 0.00121135, 0.150081, 0.855569, -0.0341108
55642.506949495007575, -0.00275125, -0.00467692, 0.00116164, 0.150133, 0.851627, -0.0334158
55642.540415362003841, -0.0029361, -0.00469684, 0.00110135, 0.150477, 0.851813, -0.0343279
55642.573731723008677, -0.00300751, -0.00469405, 0.00107713, 0.150774, 0.851089, -0.0349737
55642.607048023004609, -0.0032605, -0.00472301, 0.000988914, 0.151068, 0.850779, -0.0357971
55642.640364362006949, -0.00346349, -0.00476146, 0.00091346, 0.151081, 0.851264, -0.0361054
55642.673680723004509, -0.00357726, -0.00476157, 0.000869923, 0.151194, 0.849974, -0.0362807
55642.706997057008266, -0.00377286, -0.00477244, 0.000793257, 0.151495, 0.848333, -0.0369621
55642.740313357004197, -0.00391009, -0.00478538, 0.000727864, 0.151244, 0.847235, -0.0365495
55642.773629695009731, -0.00396115, -0.00479413, 0.0006883, 0.150925, 0.846684, -0.036047
55642.806946057004097, -0.00407735, -0.00479315, 0.000638043, 0.151041, 0.84517, -0.0362648
55642.840262357007305, -0.00400965, -0.00481856, 0.000643418, 0.150149, 0.847754, -0.035022
55642.873578695005563, -0.00403989, -0.00484198, 0.000626018, 0.149823, 0.849102, -0.0347161
55642.907045028005086, -0.00404597, -0.00484606, 0.00061813, 0.149636, 0.849489, -0.0344965
55642.940361362008844, -0.00415835, -0.00488086, 0.000558125, 0.149225, 0.850737, -0.0341836
55642.973677695008519, -0.0042249, -0.00491344, 0.000527403, 0.148808, 0.852755, -0.0338602
55643.00699399500445, -0.00413171, -0.00496565, 0.000554006, 0.147669, 0.859201, -0.0329848
55643.040310390009836, -0.00420482, -0.00500604, 0.000509938, 0.146816, 0.862651, -0.0321459
55643.073626723009511, -0.00435418, -0.00498414, 0.000426808, 0.14605, 0.861532, -0.0306978
55643.106943061007769, -0.00452859, -0.00495054, 0.000316997, 0.144863, 0.860191, -0.0284116
55643.1402593610037, -0.00464628, -0.00495894, 0.000259578, 0.144038, 0.861738, -0.0271854
55643.173575723005342, -0.00473523, -0.004955, 0.000205428, 0.143129, 0.862813, -0.0256903
55643.2068920610036, -0.00484405, -0.00496541, 0.000144083, 0.14246, 0.863628, -0.0242293
55643.240358395007206, -0.00494545, -0.0049422, 8.49385e-05, 0.141682, 0.862452, -0.0221748
55643.273674723008298, -0.00500431, -0.00496577, 5.74272e-05, 0.140636, 0.866287, -0.0208444
55643.306991028010088, -0.00505939, -0.0049695, 2.868e-05, 0.1401, 0.867014, -0.0196823
55643.340307919002953, -0.0050535, -0.0049473, 2.29452e-05, 0.139713, 0.866172, -0.0188447
55643.37362372300413, -0.00502978, -0.00493338, 1.5246e-05, 0.139087, 0.866237, -0.017497
55643.406940057007887, -0.00500761, -0.00491725, 2.09262e-05, 0.13878, 0.86579, -0.0170018
55643.440256328009127, -0.00495454, -0.00486743, 5.26757e-05, 0.139177, 0.862129, -0.0179313
55643.473572723007237, -0.00491002, -0.00484738, 7.50649e-05, 0.138975, 0.861385, -0.0179144
55643.506889009004226, -0.00490276, -0.00484473, 8.65765e-05, 0.138299, 0.862143, -0.0171491
55643.540205361008702, -0.00484383, -0.00478996, 0.000109936, 0.138034, 0.85799, -0.0164218
55643.573521723003068, -0.00483141, -0.00476006, 0.000113073, 0.13786, 0.855345, -0.0157353
55643.606988057006674, -0.00484272, -0.0047129, 9.48684e-05, 0.137973, 0.850493, -0.0148208
55643.640304361004382, -0.00481241, -0.00469788, 9.50329e-05, 0.137695, 0.848958, -0.0137696
55643.673620723006024, -0.00480903, -0.00467166, 6.846e-05, 0.137444, 0.845779, -0.011968
55643.706937028007815, -0.00475508, -0.00463986, 8.55701e-05, 0.137781, 0.843481, -0.012528
55643.74025336100749, -0.00469218, -0.00460433, 0.000106975, 0.137664, 0.840078, -0.0118442
55643.773569723009132, -0.00461828, -0.00457199, 0.000123871, 0.137214, 0.836201, -0.0100078
55643.806886057005613, -0.00450306, -0.00451602, 0.000155952, 0.137194, 0.831145, -0.00916907
55643.840202390005288, -0.0045786, -0.00456809, 0.000138099, 0.137553, 0.837016, -0.0111467
55643.873518695007078, -0.00446931, -0.00454461, 0.00017367, 0.137816, 0.836333, -0.0118828
55643.906835023008171, -0.00426266, -0.00449679, 0.000234949, 0.137811, 0.833319, -0.0114915
55643.940301390008244, -0.00412969, -0.0044609, 0.000277431, 0.138126, 0.831835, -0.0122352
55643.973617723007919, -0.00397538, -0.00443306, 0.000332137, 0.138074, 0.830539, -0.0120429
55644.006934018005268, -0.00397317, -0.00439714, 0.000311773, 0.137885, 0.826276, -0.0105155
55644.040250357007608, -0.00391922, -0.00436742, 0.000329868, 0.138179, 0.824799, -0.0111253
55644.073566695005866, -0.00388094, -0.00433526, 0.000340314, 0.13826, 0.82249, -0.0109378
55644.106885799003066, -0.00389686, -0.00432588, 0.00032203, 0.13808, 0.820944, -0.0100504
55644.140199361005216, -0.00374504, -0.00430308, 0.000347867, 0.137658, 0.819299, -0.00840766
55644.173515723006858, -0.00363548, -0.00427389, 0.000363502, 0.136964, 0.816512, -0.0058562
55644.206832057003339, -0.0035929, -0.00426238, 0.000371074, 0.136801, 0.815739, -0.00523416
55644.240148361008323, -0.00339756, -0.00423921, 0.000422286, 0.136529, 0.815343, -0.00426383
55644.273464723009965, -0.0032257, -0.00419626, 0.000448512, 0.136005, 0.812999, -0.00237381
55644.306931028004328, -0.00295503, -0.0041284, 0.000488662, 0.134466, 0.809111, 0.00271427
55644.340248152009735, -0.00285295, -0.00413613, 0.000515163, 0.13398, 0.809883, 0.00401939
55644.37356370400812, -0.00272222, -0.00412524, 0.000541731, 0.133144, 0.809827, 0.00640779
55644.406880023008853, -0.00274447, -0.00412675, 0.000525726, 0.132719, 0.809582, 0.00747069
55644.440196361007111, -0.0025695, -0.00410616, 0.000559519, 0.13174, 0.809544, 0.010269
55644.473512723008753, -0.00241177, -0.00409752, 0.000594264, 0.131047, 0.8099, 0.0122512
55644.506828999008576, -0.00235644, -0.00409375, 0.000598823, 0.130857, 0.810035, 0.0125794
55644.540145357008441, -0.00222368, -0.00407437, 0.00062163, 0.129847, 0.810576, 0.0152814
55644.573461690008116, -0.00218936, -0.00406838, 0.000628573, 0.129685, 0.810681, 0.0157405
55644.606778028006374, -0.00208092, -0.00405577, 0.000655262, 0.129234, 0.811152, 0.0171022
55644.640244390007865, -0.00189929, -0.00403963, 0.000697722, 0.128377, 0.811993, 0.0195877
55644.67356072300754, -0.00176924, -0.00402163, 0.000718709, 0.127164, 0.813331, 0.0226913
55644.70687702800933, -0.00171788, -0.00401397, 0.000724157, 0.126453, 0.814027, 0.0244948
55644.740193361009005, -0.0016473, -0.00400913, 0.000738602, 0.125865, 0.814616, 0.0261075
55644.773509723003372, -0.00153094, -0.00399436, 0.00076795, 0.125045, 0.81637, 0.0283713
55644.806826028005162, -0.00140061, -0.00397754, 0.000796226, 0.123968, 0.818783, 0.0311174
55644.840142380009638, -0.00122564, -0.00396463, 0.000837904, 0.122799, 0.820866, 0.0343417
55644.873458695008594, -0.00114605, -0.00396061, 0.000851517, 0.12206, 0.822185, 0.0361212
55644.906774999006302, -0.000988795, -0.00395932, 0.000880936, 0.120738, 0.824214, 0.0394297
55644.940091352007585, -0.000900933, -0.00395746, 0.000894487, 0.119387, 0.827156, 0.0426724
55644.973407695004425, -0.000817304, -0.00396152, 0.000908961, 0.118196, 0.82947, 0.0456346
55645.006874023005366, -0.000709279, -0.00395948, 0.000936791, 0.117404, 0.831412, 0.0479048
55645.040190328007156, -0.000521977, -0.0039526, 0.000990989, 0.116555, 0.833702, 0.0507432
55645.073506728003849, -0.000408146, -0.00395196, 0.00101912, 0.116061, 0.834809, 0.0521646
55645.106823028007057, -0.000321214, -0.00395587, 0.00103642, 0.115286, 0.837166, 0.0539966
55645.140139375005674, -0.000285098, -0.00396511, 0.0010425, 0.114426, 0.840981, 0.0557443
55645.17345569000463, -0.000207577, -0.00396074, 0.00106742, 0.114173, 0.841992, 0.0569298
55645.206772023004305, -7.32061e-05, -0.00396976, 0.00109548, 0.113191, 0.845189, 0.0590731
55645.24008839000453, -7.23847e-06, -0.00397683, 0.00110786, 0.112427, 0.849294, 0.0604727
55645.273404723004205, 2.98403e-06, -0.00398628, 0.00111137, 0.111983, 0.849814, 0.0615673
55645.306721023007412, -3.83134e-05, -0.00400492, 0.00109945, 0.111338, 0.853234, 0.0624147
55645.340187333007634, -7.18648e-05, -0.0040263, 0.00109029, 0.110563, 0.85638, 0.0637231
55645.373503723007161, -1.42598e-05, -0.00403071, 0.00110533, 0.110106, 0.857715, 0.0650332
55645.406820023003093, -2.79496e-05, -0.00403242, 0.00110279, 0.110149, 0.856038, 0.0649817
55645.440136390003318, -9.07996e-05, -0.00403772, 0.00108343, 0.11029, 0.856074, 0.0637783
55645.473452694008301, -0.000127083, -0.00405224, 0.00106716, 0.109912, 0.857604, 0.0635127
55645.506769028004783, -0.000172991, -0.00406033, 0.00105503, 0.109646, 0.857325, 0.0638682
55645.540086956003506, -0.000163685, -0.00404682, 0.0010588, 0.110015, 0.852094, 0.0638489
55645.573401690009632, -0.000128353, -0.00404426, 0.00106973, 0.109928, 0.847919, 0.0649412
55645.606718056005775, -0.000181482, -0.00404029, 0.00105707, 0.110188, 0.84329, 0.0646214
55645.640034361007565, -0.000241961, -0.00403254, 0.00104419, 0.110603, 0.83746, 0.0640425
55645.673500694007089, -0.000396561, -0.00401727, 0.00101023, 0.111487, 0.826354, 0.0628171
55645.706817056008731, -0.000349803, -0.00399358, 0.00102351, 0.111761, 0.815332, 0.0640212
55645.740133356004662, -0.000286311, -0.00397135, 0.0010422, 0.111913, 0.80658, 0.0655179
55645.773449661006453, -0.000172537, -0.00393863, 0.00107184, 0.112407, 0.797066, 0.0662248
55645.806765994006128, -0.000201888, -0.00393074, 0.00106549, 0.112501, 0.792028, 0.0666804
55645.84008239000832, -0.000236984, -0.00392024, 0.0010604, 0.112517, 0.786691, 0.0680958
55645.873398723007995, -0.000247844, -0.0038953, 0.00106136, 0.113054, 0.780513, 0.0685128
55645.906715185003122, -0.000272507, -0.00388638, 0.00105252, 0.113169, 0.776697, 0.0690208
55645.940031394005928, -0.000304448, -0.00389861, 0.00103937, 0.11293, 0.778122, 0.0687315
55645.973347690007358, -0.000294055, -0.00389745, 0.00103864, 0.11282, 0.776883, 0.0691441
55646.006664028005616, -0.000217868, -0.00388244, 0.00106141, 0.113159, 0.775723, 0.068733
55646.04013036100514, -9.87839e-05, -0.00385118, 0.00109357, 0.11388, 0.77221, 0.0678347
55646.073446694004815, -4.02509e-05, -0.00384746, 0.00110629, 0.113541, 0.770981, 0.0693285
55646.106763056006457, 3.81561e-05, -0.00384869, 0.00112114, 0.112794, 0.769881, 0.0720682
55646.140079328004504, 0.000122328, -0.0038423, 0.00114129, 0.112361, 0.767878, 0.0742703
55646.173395694007922, 0.000187565, -0.00383076, 0.00115795, 0.112113, 0.764008, 0.0763462
55646.206712028004404, 0.000227048, -0.00382356, 0.00116807, 0.112091, 0.76249, 0.0769389
55646.240028361004079, 0.000244334, -0.00381746, 0.00117366, 0.112011, 0.760513, 0.0778968
55646.273344694003754, 0.000236445, -0.00380809, 0.00117324, 0.112098, 0.75711, 0.0786512
55646.306661028007511, 0.000271156, -0.00379667, 0.00118273, 0.112168, 0.754118, 0.0794511
55646.339977361007186, 0.000431351, -0.00377085, 0.00122431, 0.112317, 0.749593, 0.080617
55646.373443690004933, 0.000598217, -0.00375925, 0.00127281, 0.11196, 0.748544, 0.082694
55646.406760023004608, 0.000748301, -0.00375135, 0.00131528, 0.111497, 0.74709, 0.0850259
55646.440076390004833, 0.000871705, -0.00375067, 0.00134276, 0.111115, 0.747975, 0.0861083
55646.473392723004508, 0.00101308, -0.00374399, 0.0013762, 0.110779, 0.746755, 0.0876647
55646.506709023007716, 0.00115998, -0.00372641, 0.00141229, 0.110699, 0.742433, 0.0893105
55646.540025390007941, 0.00125504, -0.00371392, 0.0014359, 0.110673, 0.73905, 0.0905166
55646.573341694005649, 0.00140134, -0.00370408, 0.00147211, 0.110346, 0.736348, 0.0923811
55646.606657994008856, 0.00152223, -0.00369309, 0.00150145, 0.110163, 0.732368, 0.0940961
55646.639974361009081, 0.00161417, -0.00367219, 0.0015295, 0.110446, 0.728181, 0.0946376
55646.673290694008756, 0.0017089, -0.00366211, 0.00155856, 0.110364, 0.725238, 0.0959036
55646.706607028005237, 0.00186791, -0.00364017, 0.00159516, 0.110525, 0.71995, 0.0969151
55646.740073356006178, 0.00202065, -0.00362123, 0.00163447, 0.110668, 0.716959, 0.0974431
55646.773389723006403, 0.00214583, -0.00360825, 0.00166474, 0.110681, 0.715098, 0.0979453
55646.806706056006078, 0.00225837, -0.00359649, 0.00169716, 0.110793, 0.713696, 0.098144
55646.840022804004548, 0.00235478, -0.00358609, 0.00172436, 0.110939, 0.712698, 0.0980811
55646.87333872300951, 0.0024749, -0.00357785, 0.00175725, 0.110902, 0.711769, 0.0985742
55646.906655028004025, 0.00256452, -0.00357413, 0.0017807, 0.110785, 0.71005, 0.099429
55646.9399713610037, 0.00271862, -0.0035659, 0.00182173, 0.110685, 0.70864, 0.100188
55646.973287723005342, 0.00293665, -0.00355595, 0.00187502, 0.110458, 0.709585, 0.100708
55647.006604023008549, 0.00311336, -0.0035441, 0.00191784, 0.110399, 0.709703, 0.100901
55647.039920389004692, 0.00324473, -0.00353517, 0.00195024, 0.110385, 0.71053, 0.100759
55647.073386728006881, 0.00330657, -0.00353143, 0.00196545, 0.110379, 0.710964, 0.100661
55647.106703056007973, 0.00325831, -0.00353836, 0.0019483, 0.110278, 0.710645, 0.100914
55647.140019361009763, 0.00317924, -0.00354837, 0.00192516, 0.110104, 0.710801, 0.101279
55647.173335666004277, 0.00304694, -0.00356307, 0.00188825, 0.109888, 0.711551, 0.101554
55647.206652023007337, 0.00287094, -0.00358026, 0.0018384, 0.109676, 0.712037, 0.1018
55647.239968389003479, 0.00270949, -0.00359591, 0.00179454, 0.109548, 0.712386, 0.101837
55647.273284723007237, 0.00261478, -0.00360606, 0.0017683, 0.109471, 0.713004, 0.101697
55647.306601023003168, 0.00241466, -0.00362252, 0.00171656, 0.109433, 0.712715, 0.101618
55647.339917361008702, 0.00227219, -0.00363635, 0.0016768, 0.10927, 0.712941, 0.101836
55647.373233694008377, 0.00222884, -0.00364179, 0.00166226, 0.1092, 0.713035, 0.101922
55647.406550056010019, 0.00212746, -0.00365143, 0.0016301, 0.109115, 0.713159, 0.101973
55647.440016389009543, 0.00199468, -0.00366859, 0.00158926, 0.108845, 0.713745, 0.102428
55647.473332723006024, 0.00181998, -0.00368406, 0.00154246, 0.108727, 0.714345, 0.102521
55647.506649056005699, 0.00153157, -0.00370054, 0.00146732, 0.108789, 0.714335, 0.102197
55647.539965389005374, 0.00134953, -0.00371091, 0.00141943, 0.108852, 0.713793, 0.102057
55647.573281723009131, 0.00130564, -0.00371145, 0.00140766, 0.10888, 0.714052, 0.101908
55647.606598027006839, 0.00118602, -0.00372378, 0.00137496, 0.108674, 0.715003, 0.102202
55647.639914361003321, 0.000985488, -0.0037396, 0.00132127, 0.108518, 0.715312, 0.102502
55647.673230723004963, 0.000917882, -0.00374402, 0.00129619, 0.108368, 0.71628, 0.102614
55647.706547027009947, 0.00085339, -0.003749, 0.00127361, 0.108245, 0.717086, 0.102712
55647.739863389004313, 0.000761105, -0.00375766, 0.0012482, 0.108081, 0.717686, 0.102999
55647.773329723007919, 0.000643977, -0.00376604, 0.00121128, 0.10793, 0.718212, 0.103265
55647.806646027005627, 0.000513489, -0.00377375, 0.00116957, 0.107766, 0.71893, 0.103535
55647.839962361009384, 0.000382723, -0.00378295, 0.00111421, 0.107262, 0.721293, 0.104251
55647.87327872300375, 0.000325027, -0.00378955, 0.00108575, 0.106913, 0.722709, 0.104822
55647.906595056003425, 0.000306876, -0.00379319, 0.0010704, 0.106488, 0.724931, 0.105357
55647.939911356006633, 0.000338222, -0.00379301, 0.0010643, 0.106081, 0.727032, 0.105855
55647.973227694004891, 0.000300654, -0.00379672, 0.00103672, 0.105612, 0.729029, 0.106616
55648.006544056006533, 0.000299791, -0.00380588, 0.00103376, 0.105237, 0.730679, 0.107123
55648.039860389006208, 0.000305806, -0.0038318, 0.0010435, 0.104766, 0.732849, 0.107679
55648.073176694007998, 0.000287781, -0.00386918, 0.00105138, 0.104299, 0.735071, 0.108218
55648.106493023005896, 0.000334206, -0.00387166, 0.00106423, 0.104058, 0.736402, 0.108367
55648.139959361004003, 0.000367085, -0.00388449, 0.0010737, 0.10366, 0.738412, 0.108748
55648.173275723005645, 0.000347965, -0.00390343, 0.00106969, 0.103266, 0.740188, 0.109272
55648.20659205600532, 0.000346289, -0.00390845, 0.00106685, 0.103074, 0.740879, 0.10958
55648.23990836100711, 0.000356577, -0.00391876, 0.00107013, 0.102819, 0.742069, 0.109851
55648.273224689008202, 0.000386361, -0.00392458, 0.0010786, 0.102629, 0.743019, 0.109985
55648.306541056008427, 0.000448689, -0.0039236, 0.00109858, 0.102632, 0.743467, 0.109673
55648.339857356004359, 0.000565442, -0.00391878, 0.00113207, 0.102506, 0.744428, 0.109417
55648.373173694009893, 0.000626491, -0.00391844, 0.00115033, 0.102367, 0.745183, 0.109388
55648.406490023007791, 0.000659071, -0.00391973, 0.00116181, 0.102492, 0.745184, 0.108983
55648.439806389003934, 0.000670346, -0.00393221, 0.00117253, 0.102542, 0.745722, 0.108627
55648.47327268900699, 0.000686349, -0.00392984, 0.00117731, 0.102596, 0.745645, 0.10846
55648.506589027005248, 0.000741567, -0.00392997, 0.00119923, 0.102718, 0.745941, 0.10785
55648.539905361009005, 0.000885429, -0.00391992, 0.00124678, 0.102862, 0.746348, 0.106922
55648.573221689010097, 0.000896368, -0.00391918, 0.00125056, 0.102961, 0.746303, 0.106644
55648.606538023006578, 0.000905231, -0.00390879, 0.00123938, 0.102733, 0.745778, 0.107527
55648.639854389009997, 0.00098828, -0.00389566, 0.00125962, 0.102623, 0.745664, 0.107686
55648.673170694004511, 0.00109131, -0.00389397, 0.001296, 0.102926, 0.746174, 0.10647
55648.706487027004187, 0.00118815, -0.00388369, 0.00133179, 0.103193, 0.74647, 0.105358
55648.739803389005829, 0.00124839, -0.00387023, 0.00134757, 0.10336, 0.74635, 0.104801
55648.773119723009586, 0.00140714, -0.00384957, 0.00138931, 0.10357, 0.746471, 0.103935
55648.806585999009258, 0.00160115, -0.00382587, 0.00143921, 0.10368, 0.746552, 0.103362
55648.839902389008785, 0.00172749, -0.00379998, 0.0014622, 0.103474, 0.745803, 0.104056
55648.873218723005266, 0.00182799, -0.00378779, 0.00149133, 0.103645, 0.746115, 0.103362
55648.906535056004941, 0.00190847, -0.00378453, 0.00152131, 0.103999, 0.746985, 0.102002
55648.939851389004616, 0.00204161, -0.00376173, 0.00154626, 0.103774, 0.746477, 0.102815
55648.973167723008373, 0.00210544, -0.00374947, 0.00155838, 0.103707, 0.746299, 0.103056
55649.006484037003247, 0.00212336, -0.00375885, 0.00157289, 0.10391, 0.746921, 0.102275
55649.03980109000986, 0.00214298, -0.00375937, 0.00158201, 0.10421, 0.747653, 0.101155
55649.073118218009768, 0.0022936, -0.00373742, 0.00161691, 0.104298, 0.748291, 0.100827
55649.106435246008914, 0.00240823, -0.00371908, 0.00164712, 0.104489, 0.749266, 0.100134
55649.139752322007553, 0.00248617, -0.0037082, 0.00166991, 0.10454, 0.749803, 0.0999942
55649.173219358010101, 0.00258883, -0.00369422, 0.00169426, 0.104597, 0.750439, 0.0998179
55649.206536439007323, 0.00274985, -0.00366741, 0.00172169, 0.104169, 0.750998, 0.10136
55649.239853524006321, 0.00275576, -0.00367243, 0.00171579, 0.103743, 0.749422, 0.10299
55649.27317055700405, 0.00281799, -0.00366156, 0.00172408, 0.103437, 0.749691, 0.104086
55649.30648765200749, 0.00290794, -0.00364367, 0.00173247, 0.102947, 0.751164, 0.10566
55649.339804694005579, 0.00298664, -0.00363489, 0.00173644, 0.102263, 0.751023, 0.108042
55649.373121760007052, 0.0030102, -0.0036334, 0.00173367, 0.101723, 0.750647, 0.109925
55649.406438827005331, 0.00309327, -0.00362469, 0.00173938, 0.101424, 0.752721, 0.110628
55649.439755888008222, 0.00314854, -0.00362103, 0.00174234, 0.10114, 0.753704, 0.111379
55649.473072959008277, 0.00312878, -0.00362308, 0.00173506, 0.101042, 0.752256, 0.111656
55649.5065400290041, 0.00314933, -0.00361766, 0.00173302, 0.100666, 0.750234, 0.113083
55649.539857067007688, 0.00315856, -0.00361546, 0.00173129, 0.100413, 0.749021, 0.113969
55649.573174157005269, 0.00317315, -0.0036104, 0.00173325, 0.100467, 0.746446, 0.11381
55649.60649125600321, 0.0031837, -0.00360833, 0.00172976, 0.100262, 0.745813, 0.114301
55649.639808289008215, 0.00317287, -0.00360902, 0.00172446, 0.100154, 0.744825, 0.114362
55649.673125389002962, 0.00317685, -0.00360726, 0.00172118, 0.0999493, 0.743357, 0.114784
55649.706442455004435, 0.00316323, -0.0036126, 0.00170942, 0.0995563, 0.743563, 0.115408
55649.73975952200999, 0.00312289, -0.00360952, 0.00169336, 0.0990628, 0.741769, 0.116691
55649.773076588004187, 0.00313516, -0.00361036, 0.00168723, 0.0985956, 0.742097, 0.11801
55649.80639365400566, 0.00313642, -0.00360765, 0.00168631, 0.0985068, 0.741596, 0.118333
55649.839710720007133, 0.00312197, -0.00359452, 0.00168722, 0.0986004, 0.73843, 0.118321
55649.873177790002956, 0.00315636, -0.0035874, 0.00169095, 0.0983879, 0.73765, 0.119319
55649.906494823007961, 0.003165, -0.00357145, 0.00169094, 0.0981419, 0.734628, 0.12064
55649.939811923009984, 0.00316633, -0.00356224, 0.0016913, 0.0980755, 0.732772, 0.120984
55649.97312896000949, 0.00317683, -0.0035123, 0.00170311, 0.0983769, 0.723416, 0.121615
55650.006445993007219, 0.00319176, -0.00349566, 0.00170926, 0.0985018, 0.720446, 0.121766
55650.03976238200994, 0.00321108, -0.00344784, 0.00172415, 0.0990543, 0.711225, 0.120849
55650.073078716006421, 0.0032353, -0.00339955, 0.00173484, 0.0992417, 0.702839, 0.121682
55650.106395078008063, 0.00323885, -0.00338907, 0.00173747, 0.0993244, 0.700993, 0.121697
55650.139711378003994, 0.00324827, -0.00332771, 0.00174974, 0.0998093, 0.689589, 0.121186
55650.173027716009528, 0.00324775, -0.00326727, 0.00175567, 0.10002, 0.678586, 0.121466
55650.206494078003743, 0.00327033, -0.00320439, 0.00177419, 0.100676, 0.667543, 0.120483
55650.239810382008727, 0.00330313, -0.00316411, 0.00179218, 0.101335, 0.660887, 0.119186
55650.273126716005208, 0.00336304, -0.00312822, 0.00180761, 0.101694, 0.655941, 0.119545
55650.306443078006851, 0.0034373, -0.00307198, 0.0018316, 0.10234, 0.647807, 0.119569
55650.339759382004559, 0.00347787, -0.00299996, 0.00185528, 0.103164, 0.63636, 0.118804
55650.373075711009733, 0.00351128, -0.00295337, 0.00187322, 0.103811, 0.62888, 0.117534
55650.406392078009958, 0.00350563, -0.00293934, 0.00188211, 0.104278, 0.626212, 0.115827
55650.439708411009633, 0.00352367, -0.00291708, 0.0018907, 0.104561, 0.622628, 0.114992
55650.473024711005564, 0.00348247, -0.00291248, 0.00189989, 0.105285, 0.620568, 0.111196
55650.506341078005789, 0.00348561, -0.00290784, 0.00191561, 0.10595, 0.619805, 0.109108
55650.539657411005464, 0.00346945, -0.00289797, 0.00192456, 0.106451, 0.618048, 0.107627
55650.573123744004988, 0.00345123, -0.00290272, 0.00192167, 0.106464, 0.618548, 0.107446
55650.606440078008745, 0.00344676, -0.00289868, 0.00191835, 0.106408, 0.617885, 0.10771
55650.639756416007003, 0.00342052, -0.0029017, 0.00191509, 0.106435, 0.618077, 0.107456
55650.673072744008095, 0.00338115, -0.00291563, 0.00191901, 0.106792, 0.619832, 0.105655
55650.706389044004027, 0.00343755, -0.00289215, 0.0019092, 0.10615, 0.617011, 0.109062
55650.739705411004252, 0.00344883, -0.00288269, 0.00190132, 0.105815, 0.615501, 0.110354
55650.773021716006042, 0.00344138, -0.00286362, 0.00188717, 0.105444, 0.612138, 0.111882
55650.806338049005717, 0.00343046, -0.00284851, 0.00187996, 0.105426, 0.609771, 0.112157
55650.839654411007359, 0.00343027, -0.00284568, 0.00187773, 0.105366, 0.609357, 0.112441
55650.872970744007034, 0.00345605, -0.00282676, 0.00187002, 0.104873, 0.607035, 0.115794
55650.90643704401009, 0.00343332, -0.0028367, 0.00186203, 0.104695, 0.607541, 0.115127
55650.939753382008348, 0.00345461, -0.00281858, 0.00184672, 0.104096, 0.604398, 0.11758
55650.97306974400999, 0.00348682, -0.00281281, 0.00185083, 0.103998, 0.604018, 0.118638
55651.006386049004504, 0.00352649, -0.00281212, 0.00185372, 0.103731, 0.604296, 0.119887
55651.039702411006147, 0.00356767, -0.00280672, 0.00185484, 0.103422, 0.60374, 0.121656
55651.073018744005822, 0.00358757, -0.00280401, 0.00185684, 0.103345, 0.603533, 0.12215
55651.106335078009579, 0.00361903, -0.00280956, 0.0018627, 0.10317, 0.604694, 0.122751
55651.139651411009254, 0.00366613, -0.00281746, 0.00187188, 0.103038, 0.606368, 0.123008
55651.172967716003768, 0.00366369, -0.00284394, 0.00187215, 0.102653, 0.610051, 0.123193
55651.20628404400486, 0.00369481, -0.00285135, 0.00187818, 0.102445, 0.61149, 0.123769
55651.239600368004176, 0.00371808, -0.00285326, 0.0018812, 0.102258, 0.612015, 0.124542
55651.273066711008141, 0.00373248, -0.00285788, 0.00188515, 0.102212, 0.612838, 0.124628
55651.306383044007816, 0.00372809, -0.00286429, 0.0018858, 0.102175, 0.613789, 0.124507
55651.339699416006624, 0.00377552, -0.00289267, 0.00190195, 0.101843, 0.618616, 0.124741
55651.373015744007716, 0.00379691, -0.00291191, 0.00191361, 0.101745, 0.621724, 0.124512
55651.406332049009507, 0.00379614, -0.00291017, 0.00191315, 0.101775, 0.621434, 0.124495
55651.439648349005438, 0.00383973, -0.00294139, 0.00193283, 0.101606, 0.626579, 0.124072
55651.47296471100708, 0.00382379, -0.00300978, 0.00194759, 0.100942, 0.637031, 0.12366
55651.506281077003223, 0.00379682, -0.00304104, 0.00194645, 0.100424, 0.641582, 0.124098
55651.539597720009624, 0.00380027, -0.00307358, 0.00195883, 0.100207, 0.646565, 0.123776
55651.57291371600877, 0.00379693, -0.00308165, 0.00195315, 0.0997315, 0.647845, 0.124961
55651.606380077006179, 0.00379451, -0.00307383, 0.00194409, 0.0994087, 0.646699, 0.126206
55651.639696411009936, 0.00382201, -0.00306894, 0.00194427, 0.0990983, 0.646134, 0.127601
55651.673012744009611, 0.00382958, -0.00305529, 0.00193753, 0.0989307, 0.644172, 0.128589
55651.706329044005543, 0.00383002, -0.00306246, 0.00194133, 0.0989568, 0.64527, 0.128214
55651.739645411005768, 0.00394195, -0.00303785, 0.00195137, 0.09847, 0.642102, 0.131497
55651.772961749004025, 0.00391607, -0.0030479, 0.00194416, 0.0980711, 0.643324, 0.132514
55651.806278049007233, 0.00394803, -0.00302947, 0.00194112, 0.0978646, 0.640825, 0.133762
55651.839594382006908, 0.00398845, -0.00300987, 0.00193747, 0.0974319, 0.63813, 0.136114
55651.872910711004806, 0.00399831, -0.00300076, 0.0019246, 0.0966898, 0.637044, 0.138076
55651.906227077008225, 0.0040519, -0.00300192, 0.00193549, 0.0965591, 0.637516, 0.138793
55651.939693377004005, 0.00409151, -0.00299255, 0.00193875, 0.0963142, 0.636423, 0.140097
55651.973009715009539, 0.00409817, -0.00299419, 0.0019364, 0.0960097, 0.636975, 0.140419
55652.006326539005386, 0.00413374, -0.00297646, 0.00193857, 0.0959611, 0.634654, 0.141134
55652.039642411007662, 0.00411883, -0.00297705, 0.00193183, 0.0957935, 0.634901, 0.140715
55652.07295871500537, 0.0041307, -0.00297064, 0.00193256, 0.0958028, 0.634067, 0.140806
55652.106275077007012, 0.00418842, -0.00294678, 0.00193929, 0.0957371, 0.631086, 0.14207
55652.139591411003494, 0.00419128, -0.00294612, 0.00193819, 0.0955056, 0.631078, 0.142775
55652.172907744003169, 0.0042258, -0.00292932, 0.00194266, 0.0954411, 0.629014, 0.143609
55652.20622407701012, 0.00421702, -0.00292669, 0.00193975, 0.0952213, 0.628698, 0.144039
55652.239540349008166, 0.00420985, -0.00292703, 0.00193747, 0.0950829, 0.628817, 0.144139
55652.272856744006276, 0.00421735, -0.00291114, 0.00193776, 0.094993, 0.626723, 0.145488
55652.3063230770058, 0.00422627, -0.00290341, 0.00193841, 0.094965, 0.625762, 0.145851
55652.33963938200759, 0.00424742, -0.00289633, 0.0019429, 0.095014, 0.624878, 0.146645
55652.372955744009232, 0.00425311, -0.00289125, 0.00194388, 0.0949975, 0.624244, 0.146686
55652.406272049003746, 0.00425966, -0.00288192, 0.00194472, 0.0949369, 0.623114, 0.14707
55652.439588382003421, 0.0042891, -0.00286875, 0.0019516, 0.0949987, 0.621428, 0.147821
55652.472904715003096, 0.00431093, -0.00285645, 0.00195517, 0.0950181, 0.61984, 0.148843
55652.506221049006854, 0.00434991, -0.00283907, 0.00196392, 0.0951612, 0.617663, 0.149302
55652.539537411008496, 0.00438406, -0.00281837, 0.00197034, 0.0951823, 0.615196, 0.149981
55652.572853744008171, 0.00444603, -0.00278885, 0.00198333, 0.0952909, 0.611692, 0.150951
55652.606170077007846, 0.0045438, -0.00275274, 0.00200114, 0.0954709, 0.607586, 0.152525
55652.639636411004176, 0.00462326, -0.00271548, 0.00201751, 0.0956662, 0.603243, 0.153664
55652.672952682005416, 0.00465407, -0.00270238, 0.00202379, 0.0957579, 0.601706, 0.154219
55652.706269077003526, 0.00468588, -0.00268564, 0.00202928, 0.0957904, 0.599824, 0.1548
55652.739585411007283, 0.00472318, -0.00266694, 0.00203756, 0.0959323, 0.597657, 0.154948
55652.772901744006958, 0.00477095, -0.00264373, 0.00204638, 0.0960384, 0.595053, 0.155633
55652.806218077006633, 0.0048056, -0.00262656, 0.00205332, 0.0961457, 0.593115, 0.155815
55652.839534411003115, 0.00489169, -0.00258717, 0.00207479, 0.0966056, 0.588564, 0.155458
55652.872850711006322, 0.00492762, -0.00256814, 0.0020808, 0.0966675, 0.586487, 0.155855
55652.90616704900458, 0.00498521, -0.00254381, 0.00209055, 0.0967385, 0.583902, 0.156081
55652.939483377005672, 0.00512785, -0.00249386, 0.00212415, 0.0973049, 0.578445, 0.15481
55652.97279971500393, 0.00523998, -0.00245557, 0.00215502, 0.0979859, 0.574132, 0.152737
55653.006266044008953, 0.00536456, -0.0024149, 0.00217664, 0.0981229, 0.569916, 0.152237
55653.039582382007211, 0.00555463, -0.00235223, 0.00220345, 0.0980494, 0.563421, 0.15257
55653.072898711005109, 0.00562862, -0.00232423, 0.00221866, 0.0982648, 0.560379, 0.151828
55653.106215049003367, 0.00568347, -0.00230643, 0.00222353, 0.0981159, 0.558554, 0.152294
55653.139531411005009, 0.00572524, -0.00229145, 0.00222756, 0.0980507, 0.556992, 0.152532
55653.172847687004833, 0.00576656, -0.00227416, 0.00223295, 0.0980776, 0.555141, 0.152617
55653.206164049006475, 0.00582871, -0.00224702, 0.00223662, 0.0977834, 0.552124, 0.152661
55653.239480411008117, 0.00584132, -0.0022373, 0.00223685, 0.0976867, 0.550976, 0.152364
55653.27279668700794, 0.00590797, -0.00220968, 0.00224394, 0.0976373, 0.547958, 0.152408
55653.306113015009032, 0.00593481, -0.00219205, 0.002244, 0.0975969, 0.545976, 0.153045
55653.339579382009106, 0.0058582, -0.00221272, 0.00222856, 0.0971012, 0.548001, 0.153365
55653.372895715008781, 0.00580472, -0.00223061, 0.00221537, 0.0967017, 0.549886, 0.154586
55653.406212044006679, 0.00576005, -0.00224753, 0.00221007, 0.096587, 0.551696, 0.154603
55653.439528349008469, 0.00572383, -0.00226589, 0.00220736, 0.0965422, 0.553769, 0.154735
55653.472844682008144, 0.00569949, -0.00227579, 0.00220307, 0.0964423, 0.55484, 0.155279
55653.506161077006254, 0.00564707, -0.00229207, 0.00218873, 0.0959392, 0.556442, 0.157131
55653.539477382008045, 0.00563801, -0.00229673, 0.00218504, 0.0957514, 0.556983, 0.157735
55653.572793744009687, 0.00563975, -0.0023045, 0.0021891, 0.0957997, 0.557948, 0.157617
55653.606110044005618, 0.00563749, -0.00231278, 0.00219081, 0.0957954, 0.558941, 0.157793
55653.639426410009037, 0.0056321, -0.00231698, 0.00219134, 0.0958192, 0.559403, 0.157762
55653.672742744005518, 0.00564811, -0.00231666, 0.00219287, 0.0957901, 0.559424, 0.158135
55653.706209049007157, 0.00567753, -0.00230417, 0.00218873, 0.0956747, 0.557935, 0.159508
55653.739525382006832, 0.00571929, -0.00228866, 0.0021868, 0.0956437, 0.55613, 0.16066
55653.772841744008474, 0.00569932, -0.00230081, 0.00219275, 0.0956763, 0.557637, 0.159353
55653.806158044004405, 0.00570695, -0.00229835, 0.00219423, 0.0957631, 0.557356, 0.159042
55653.839474410007824, 0.00571895, -0.00229253, 0.00219131, 0.09581, 0.556586, 0.159731
55653.872790744004305, 0.00571807, -0.00229004, 0.00218877, 0.095762, 0.556274, 0.160112
55653.906107044007513, 0.00571918, -0.00228987, 0.00218829, 0.0957652, 0.556226, 0.160072
55653.939423382005771, 0.00572246, -0.00228454, 0.00218173, 0.0955371, 0.555584, 0.161266
55653.972739744007413, 0.00572067, -0.00228243, 0.00217772, 0.0953242, 0.555358, 0.162121
55654.006056044003344, 0.00570889, -0.00228301, 0.00217658, 0.0952201, 0.555463, 0.161832
55654.039522382008727, 0.00570482, -0.00228044, 0.00217251, 0.0950433, 0.555137, 0.162432
55654.072838744003093, 0.00569723, -0.00228204, 0.00217012, 0.0949076, 0.555286, 0.162813
55654.106155077010044, 0.00571223, -0.0022761, 0.00216388, 0.0947292, 0.554452, 0.16457
55654.139471410009719, 0.00574034, -0.0022626, 0.00215072, 0.0942146, 0.55258, 0.168494
55654.172787715004233, 0.00574792, -0.00225944, 0.00214807, 0.0939911, 0.552124, 0.1695
55654.206104048003908, 0.00575193, -0.00225604, 0.00214669, 0.0939104, 0.551765, 0.169693
55654.23942041000555, 0.00575805, -0.00225252, 0.00214567, 0.0938774, 0.551354, 0.169969
55654.272736744009308, 0.00576261, -0.00224451, 0.00213963, 0.093755, 0.550255, 0.171201
55654.306053048007016, 0.00576958, -0.00223192, 0.00212692, 0.0936207, 0.548335, 0.173731
55654.339369410008658, 0.0057924, -0.00222567, 0.00212655, 0.0936752, 0.547597, 0.174199
55654.372685744005139, 0.00579329, -0.0022236, 0.00212492, 0.0935441, 0.547283, 0.174836
55654.406152077004663, 0.00581576, -0.00221002, 0.00211744, 0.0932879, 0.545295, 0.177596
55654.43946837700787, 0.00584939, -0.00219764, 0.00211621, 0.0933561, 0.543723, 0.178598
55654.472784710007545, 0.00587615, -0.00218665, 0.00211439, 0.0933152, 0.5423, 0.179966
55654.506101048005803, 0.00588339, -0.00217891, 0.00211011, 0.0932954, 0.541159, 0.181176
55654.53941738200956, 0.00594142, -0.00216033, 0.00211006, 0.0933422, 0.538872, 0.18303
55654.572733744003926, 0.00598176, -0.00214194, 0.00210874, 0.0934309, 0.536553, 0.184679
55654.606050077003601, 0.00601383, -0.00212627, 0.00210864, 0.0936595, 0.534562, 0.185354
55654.639366410003277, 0.00602769, -0.00211947, 0.00210769, 0.0938196, 0.533656, 0.186073
55654.672682744007034, 0.00604226, -0.00210849, 0.00210656, 0.0941287, 0.532224, 0.186682
55654.705999072008126, 0.00606514, -0.00208795, 0.00210042, 0.0942103, 0.529543, 0.188415
55654.739465382008348, 0.00608177, -0.00208364, 0.00210137, 0.0941532, 0.529088, 0.188599
55654.77278171000944, 0.00613986, -0.00206564, 0.00210019, 0.0937847, 0.526943, 0.190214
55654.806098077009665, 0.00620678, -0.00204681, 0.00210817, 0.0941519, 0.525039, 0.190032
55654.839414382004179, 0.00623581, -0.0020351, 0.00211195, 0.0945163, 0.523842, 0.189682
55654.872730744005821, 0.00628348, -0.00201986, 0.00211505, 0.0946108, 0.522212, 0.189734
55654.906047044009028, 0.00630798, -0.00201051, 0.00211548, 0.0946923, 0.521151, 0.189852
55654.939363463003247, 0.0063285, -0.00200023, 0.0021164, 0.0949248, 0.520021, 0.189707
55654.972679744008929, 0.00635264, -0.00199473, 0.00211689, 0.0947372, 0.519367, 0.189775
55655.00599604400486, 0.00639047, -0.00198555, 0.00211972, 0.0947007, 0.51843, 0.189583
55655.039312410008279, 0.00643749, -0.00197429, 0.00212441, 0.0946723, 0.517292, 0.189221
55655.072778744004609, 0.00644967, -0.00197622, 0.00212597, 0.0944487, 0.51739, 0.189827
55655.106095077004284, 0.0063832, -0.00199726, 0.0021172, 0.094126, 0.519256, 0.191733
55655.139411410003959, 0.00632428, -0.00201514, 0.00210783, 0.0938898, 0.520626, 0.19398
55655.172727748009493, 0.006304, -0.00202, 0.00209911, 0.093756, 0.520629, 0.195748
55655.206044044003647, 0.00630649, -0.00201751, 0.00209745, 0.093856, 0.520281, 0.196014
55655.239360382009181, 0.00631281, -0.00201504, 0.00209467, 0.0938749, 0.519795, 0.196618
55655.272676715008856, 0.00629056, -0.00202239, 0.00209039, 0.093557, 0.520248, 0.197036
55655.30599302000337, 0.00626794, -0.00202857, 0.00208905, 0.0934026, 0.52082, 0.197199
55655.33930937700643, 0.00624336, -0.00203631, 0.00208998, 0.0933086, 0.521657, 0.197344
55655.372625715004688, 0.00621817, -0.00204751, 0.00209038, 0.0932429, 0.522739, 0.198215
55655.405942063007387, 0.00621981, -0.00205302, 0.00209804, 0.0934365, 0.523647, 0.198438
55655.439408410005854, 0.00620107, -0.00205999, 0.00209754, 0.0934297, 0.524274, 0.199026
55655.472724744009611, 0.00620208, -0.0020633, 0.00210197, 0.0934807, 0.524764, 0.199072
55655.506041077009286, 0.00617347, -0.00207388, 0.00210286, 0.0933367, 0.525667, 0.199777
55655.539357410008961, 0.00615014, -0.00208348, 0.00210938, 0.0933031, 0.526807, 0.199919
55655.572673744005442, 0.00615158, -0.0020908, 0.00212114, 0.0934356, 0.527991, 0.199812
55655.605990044008649, 0.00613631, -0.00209394, 0.00211766, 0.0933257, 0.528033, 0.200268
55655.639306410004792, 0.00609796, -0.00210603, 0.00211876, 0.0931986, 0.529011, 0.200907
55655.672622744008549, 0.00612391, -0.00210525, 0.00213203, 0.0935192, 0.529701, 0.200043
55655.705939077008225, 0.00614103, -0.00210283, 0.00213298, 0.0937108, 0.529585, 0.199978
55655.7392554100079, 0.00612665, -0.00210318, 0.00212767, 0.0935557, 0.529353, 0.200215
55655.772721743007423, 0.00612322, -0.00210424, 0.00212779, 0.0933786, 0.529415, 0.200242
55655.806038043003355, 0.00610228, -0.00210832, 0.00212689, 0.0932474, 0.529651, 0.200391
55655.83935441000358, 0.00610081, -0.00210853, 0.00212736, 0.0931525, 0.529653, 0.200311
55655.872670682008902, 0.00606864, -0.0021158, 0.00212918, 0.0928386, 0.530103, 0.200499
55655.905987077007012, 0.00603517, -0.00212485, 0.00212536, 0.0924628, 0.53024, 0.201327
55655.939303382008802, 0.00603198, -0.00212594, 0.00212054, 0.0923538, 0.529908, 0.201813
55655.972619715008477, 0.0060387, -0.00212862, 0.00212032, 0.0923577, 0.529904, 0.202369
55656.005936048008152, 0.00603575, -0.00212909, 0.00211884, 0.0923956, 0.529874, 0.20252
55656.039252410009794, 0.00605029, -0.00212791, 0.00211986, 0.0923022, 0.529696, 0.202529
55656.072568743009469, 0.00605319, -0.00213112, 0.00211917, 0.0921103, 0.52945, 0.203
55656.105885077005951, 0.00603499, -0.00213698, 0.00211955, 0.091836, 0.529424, 0.203414
55656.139351377009007, 0.00603893, -0.0021357, 0.00211737, 0.091821, 0.529143, 0.203455
55656.172667715007265, 0.00594861, -0.00214964, 0.00209916, 0.091622, 0.528721, 0.205109
55656.205984077008907, 0.00592638, -0.0021544, 0.00209823, 0.0915254, 0.528862, 0.20544
55656.239300348002871, 0.00591081, -0.00215624, 0.00209434, 0.0914522, 0.52856, 0.205654
55656.272616743008257, 0.00589842, -0.00215796, 0.00208958, 0.0914291, 0.528219, 0.205978
55656.305933043004188, 0.00589661, -0.00215879, 0.00208951, 0.0914006, 0.528198, 0.206045
55656.339249377007945, 0.00592997, -0.00215422, 0.00207765, 0.0917385, 0.526423, 0.206641
55656.372565743004088, 0.00590462, -0.00215759, 0.00207179, 0.0917665, 0.526205, 0.207016
55656.405882043007296, 0.00585972, -0.00216332, 0.00205921, 0.0918253, 0.525517, 0.207808
55656.439198410007521, 0.00583737, -0.00216689, 0.00204431, 0.0918287, 0.523888, 0.208554
55656.472664739005268, 0.00578274, -0.00217265, 0.0020281, 0.0918463, 0.522706, 0.209425
55656.505981077003526, 0.00575124, -0.00217582, 0.00201906, 0.0919132, 0.522026, 0.209885
55656.539297410003201, 0.00576131, -0.00217412, 0.00202116, 0.0920238, 0.522236, 0.209681
55656.572613743002876, 0.00574671, -0.00217505, 0.00201662, 0.0921437, 0.521839, 0.20986
55656.605930043006083, 0.00573583, -0.00217552, 0.00200873, 0.092248, 0.520897, 0.210007
55656.639246410006308, 0.00577087, -0.00217058, 0.00200692, 0.0923989, 0.520064, 0.209735
55656.672562743005983, 0.00580367, -0.00216722, 0.00200785, 0.0924936, 0.51944, 0.209601
55656.705879048007773, 0.00585284, -0.00216117, 0.00200703, 0.0927824, 0.518126, 0.209604
55656.739195377005672, 0.00584444, -0.00216294, 0.00200712, 0.0926892, 0.518326, 0.209633
55656.77251174300909, 0.00580986, -0.00216833, 0.00200327, 0.0926266, 0.518263, 0.210209
55656.805828077005572, 0.00579137, -0.00217376, 0.0020004, 0.0924817, 0.518121, 0.210651
55656.839294377008628, 0.00575752, -0.00218498, 0.00199363, 0.0921054, 0.517749, 0.211421
55656.872610681006336, 0.00576974, -0.00218433, 0.00199363, 0.0921001, 0.517579, 0.211375
55656.905927048006561, 0.00578486, -0.00218108, 0.00199275, 0.0921582, 0.517279, 0.211197
55656.939243377004459, 0.00580563, -0.00218699, 0.00199702, 0.0919234, 0.517272, 0.211418
55656.972559715009993, 0.00580238, -0.00218788, 0.0019958, 0.0919147, 0.517202, 0.211535
55657.005876077004359, 0.00581979, -0.00218443, 0.00199636, 0.0919411, 0.517028, 0.211178
55657.039192410004034, 0.00582102, -0.00218237, 0.00199606, 0.0919663, 0.516994, 0.210972
55657.072508743003709, 0.00581253, -0.00218513, 0.00199637, 0.0919314, 0.517088, 0.211168
55657.105825077007466, 0.00579096, -0.00219288, 0.00199715, 0.0918541, 0.517233, 0.21174
55657.139141410007142, 0.00576628, -0.0022004, 0.00200192, 0.0917398, 0.517703, 0.212063
55657.17260771500878, 0.00573535, -0.00220714, 0.00200516, 0.0916808, 0.518115, 0.212491
55657.205924077003147, 0.00568567, -0.0022192, 0.00201066, 0.0915263, 0.518814, 0.213067
55657.239240410010098, 0.00565682, -0.002225, 0.00201561, 0.0915164, 0.519245, 0.213476
55657.272556743009773, 0.00565412, -0.00223232, 0.00201572, 0.0915283, 0.519248, 0.214089
55657.305873043005704, 0.0056032, -0.00224368, 0.00202202, 0.0914421, 0.51985, 0.214582
55657.339189353006077, 0.00556884, -0.00225191, 0.00203117, 0.0914853, 0.520428, 0.21508
55657.372505715007719, 0.00548493, -0.00227153, 0.0020421, 0.0914488, 0.521379, 0.215978
55657.405822810003883, 0.00547361, -0.00227291, 0.00205278, 0.0915155, 0.521843, 0.216024
55657.439138377005293, 0.00548709, -0.00227538, 0.0020561, 0.0916241, 0.521933, 0.216262
55657.472454743008711, 0.00550791, -0.00228279, 0.00206886, 0.0918815, 0.52245, 0.216719
55657.505771077005193, 0.0055186, -0.00228306, 0.00207325, 0.0919512, 0.522566, 0.216756
55657.539237381010025, 0.00555905, -0.00228141, 0.00207231, 0.0921208, 0.522479, 0.216851
55657.572553710007924, 0.0055787, -0.00228061, 0.00207493, 0.0922192, 0.522565, 0.216849
55657.605870077008149, 0.00559751, -0.00227495, 0.00209171, 0.0923819, 0.52312, 0.216489
55657.639186396008881, 0.00560966, -0.00227485, 0.00209416, 0.0924408, 0.523198, 0.216474
55657.672502715009614, 0.00559436, -0.00228148, 0.00209139, 0.0923864, 0.52317, 0.216704
55657.705819048009289, 0.00557006, -0.0022829, 0.00210413, 0.092383, 0.523656, 0.216536
55657.739135381008964, 0.00556459, -0.0022853, 0.00210685, 0.0924433, 0.52387, 0.216545
55657.77245174300333, 0.00555069, -0.0022914, 0.00210402, 0.0923884, 0.523839, 0.216744
55657.805768043006537, 0.0055891, -0.00229014, 0.00210539, 0.0924273, 0.52378, 0.216766
55657.839084410006762, 0.00560708, -0.00228734, 0.0021116, 0.0924418, 0.523915, 0.216622
55657.872550710009818, 0.00562633, -0.00229231, 0.00211517, 0.092389, 0.523899, 0.216761
55657.905867043009493, 0.00567128, -0.00227933, 0.00212436, 0.0924331, 0.523997, 0.216341
55657.939183381007751, 0.0056747, -0.00227492, 0.00213181, 0.0923521, 0.524055, 0.216168
55657.972499743009394, 0.00573455, -0.00227506, 0.00213422, 0.0923899, 0.523893, 0.216193
55658.005816076009069, 0.00575927, -0.00227911, 0.00214041, 0.0923439, 0.523869, 0.216274
55658.03913241000555, 0.00581026, -0.00227156, 0.00215029, 0.0922564, 0.523741, 0.216052
55658.07244871500734, 0.00580514, -0.00227322, 0.00215294, 0.0921548, 0.523612, 0.216064
55658.105765081003483, 0.00581017, -0.00227243, 0.00215421, 0.0921118, 0.523507, 0.216011
55658.13908138100669, 0.00581192, -0.00226973, 0.00216167, 0.0920073, 0.523498, 0.215906
55658.172397710004589, 0.00581688, -0.00226993, 0.0021626, 0.0919382, 0.52321, 0.215805
55658.205864043004112, 0.0058088, -0.00227169, 0.00216265, 0.091898, 0.523035, 0.215769
55658.239180410004337, 0.00579699, -0.00227562, 0.00216532, 0.091839, 0.522816, 0.215745
55658.272496743004012, 0.00577239, -0.00228253, 0.00215862, 0.0919173, 0.522752, 0.215924
55658.305813076003687, 0.00573163, -0.00229149, 0.00215443, 0.0919453, 0.522497, 0.216044
55658.33913277600368, 0.00570382, -0.00229379, 0.00215361, 0.0918748, 0.522218, 0.216004
55658.372445715009235, 0.00564592, -0.00230352, 0.00214835, 0.0919005, 0.521915, 0.216188
55658.405762076006795, 0.00560378, -0.00231422, 0.00214705, 0.0919643, 0.521553, 0.216343
55658.439078410003276, 0.00558175, -0.00231884, 0.00214578, 0.0919734, 0.52123, 0.216289
55658.472394710006483, 0.00553743, -0.00232867, 0.00214255, 0.0920542, 0.520798, 0.216345
55658.505711048004741, 0.00550792, -0.00233896, 0.00214204, 0.0921811, 0.52038, 0.216371
55658.539027381004416, 0.00550921, -0.00233863, 0.00214096, 0.0921894, 0.52046, 0.216405
55658.572493753003073, 0.00546951, -0.00234484, 0.00214005, 0.0922463, 0.520021, 0.21643
55658.605810043009114, 0.00545884, -0.00235177, 0.00214465, 0.0923341, 0.519443, 0.216123
55658.63912637600879, 0.00538458, -0.00236833, 0.00214769, 0.0925904, 0.51808, 0.216015
55658.672442743009015, 0.00533565, -0.00238536, 0.00214793, 0.0929925, 0.517185, 0.215861
55658.70575907600869, 0.00532642, -0.00239268, 0.00215309, 0.0931641, 0.516567, 0.215543
55658.739075381003204, 0.00528124, -0.0023973, 0.00215283, 0.0932612, 0.515864, 0.215519
55658.772391743004846, 0.00524004, -0.0024092, 0.00216228, 0.0935962, 0.514296, 0.214882
55658.805708048006636, 0.0052034, -0.002413, 0.00216366, 0.0937323, 0.513607, 0.214859
55658.839024376007728, 0.00518766, -0.00241468, 0.00216367, 0.0937953, 0.513345, 0.214861
55658.87234071000421, 0.00518813, -0.00242115, 0.00216891, 0.0940705, 0.512806, 0.214437
55658.905807076007477, 0.00520362, -0.00243127, 0.00218937, 0.0946127, 0.510977, 0.213209
55658.939123410003958, 0.00523173, -0.00243596, 0.00219659, 0.0948351, 0.510774, 0.212679
55658.972439710007166, 0.00523784, -0.00243931, 0.00219976, 0.0950192, 0.510567, 0.212394
55659.005756076003308, 0.00527409, -0.00245066, 0.00220903, 0.0956352, 0.510129, 0.211258
55659.039072381005099, 0.0053022, -0.00245277, 0.00221608, 0.0957833, 0.509888, 0.210735
55659.072388743006741, 0.00530846, -0.00244901, 0.00222464, 0.0957355, 0.508721, 0.210376
55659.105705076006416, 0.00531109, -0.0024455, 0.00223105, 0.0956142, 0.507818, 0.210158
55659.139021381008206, 0.00530246, -0.00244359, 0.00223188, 0.0955178, 0.507541, 0.21029
55659.172337743009848, 0.0053197, -0.00244221, 0.00223851, 0.0955043, 0.50684, 0.209838
55659.205654014003812, 0.00533573, -0.0024418, 0.00224375, 0.0955502, 0.506274, 0.20936
55659.238970410006004, 0.00534109, -0.00244078, 0.00224448, 0.0954206, 0.506012, 0.209088
55659.272436743005528, 0.00534534, -0.00243955, 0.00224629, 0.0952712, 0.505575, 0.208771
55659.305753076005203, 0.0053314, -0.00243877, 0.0022439, 0.0951192, 0.505378, 0.208779
55659.33906937600841, 0.00533084, -0.00243899, 0.00224277, 0.0950579, 0.505441, 0.208724
55659.372385743008635, 0.00532603, -0.00243902, 0.00224117, 0.0949428, 0.505603, 0.208741
55659.405702043004567, 0.00532804, -0.00243973, 0.00223881, 0.0948314, 0.506127, 0.208811
55659.439018381010101, 0.0052728, -0.00243964, 0.0022285, 0.0946525, 0.506419, 0.209458
55659.472334686004615, 0.00528506, -0.00244109, 0.00222683, 0.09455, 0.507153, 0.209408
55659.505651043007674, 0.00530421, -0.00244164, 0.00223144, 0.0947009, 0.507564, 0.209663
55659.538967410007899, 0.00529291, -0.00244072, 0.00223227, 0.0948194, 0.507102, 0.209869
55659.57228371000383, 0.00526016, -0.00243827, 0.00223338, 0.094988, 0.506398, 0.210452
55659.605750019007246, 0.00525375, -0.00244108, 0.00223403, 0.095103, 0.507103, 0.210851
55659.639066381008888, 0.00523442, -0.00244549, 0.00223258, 0.095204, 0.508246, 0.21143
55659.672382681004819, 0.00521862, -0.00244604, 0.00223293, 0.0953173, 0.508122, 0.211589
55659.705699076002929, 0.00520921, -0.00244651, 0.00223515, 0.0954838, 0.507809, 0.211557
55659.739015410006687, 0.00520507, -0.00244828, 0.00223776, 0.0956318, 0.507928, 0.211566
55659.772331729007419, 0.00520374, -0.00245095, 0.00223879, 0.095616, 0.508644, 0.211832
55659.805648048008152, 0.0051984, -0.00245311, 0.00224253, 0.0958946, 0.508576, 0.211584
55659.838964410009794, 0.00521031, -0.00245495, 0.00224861, 0.0961654, 0.508581, 0.21115
55659.872280714007502, 0.00525887, -0.00245921, 0.00225663, 0.096111, 0.509935, 0.21106
55659.9055970430054, 0.00523967, -0.00246003, 0.00225601, 0.0962956, 0.509675, 0.210882
55659.938913381003658, 0.0052807, -0.00246287, 0.002263, 0.0963426, 0.510466, 0.210502
55659.972379710008681, 0.00531204, -0.00246721, 0.00227013, 0.0964227, 0.5114, 0.210231
55660.005696048006939, 0.00531892, -0.0024723, 0.00227495, 0.0966212, 0.512212, 0.20993
55660.039012376008031, 0.00529925, -0.00247081, 0.00227255, 0.0967279, 0.511704, 0.209865
55660.072328710004513, 0.00526323, -0.00246952, 0.00226715, 0.0967115, 0.511211, 0.210182
55660.105645043004188, 0.00521579, -0.00246693, 0.00225856, 0.0965988, 0.510429, 0.210762
55660.138961410004413, 0.005166, -0.00246371, 0.00224919, 0.0963103, 0.509548, 0.211712
55660.172277743004088, 0.00515806, -0.00246277, 0.00224682, 0.0960391, 0.509327, 0.212331
55660.205594019003911, 0.00515627, -0.00246147, 0.00224552, 0.0958972, 0.509015, 0.212592
55660.238910381005553, 0.00515627, -0.00246147, 0.00224552, 0.0958972, 0.509015, 0.212592
55660.272226743007195, 0.00513521, -0.00245767, 0.00224098, 0.0957919, 0.507834, 0.212781
55660.305693076006719, 0.00511834, -0.00245547, 0.00223832, 0.0957673, 0.507116, 0.212919
55660.339009348004765, 0.00510473, -0.00245311, 0.00223631, 0.0956879, 0.50625, 0.21298
55660.372325743002875, 0.00506798, -0.00245331, 0.00223186, 0.0955049, 0.505714, 0.213357
55660.405642076009826, 0.00500678, -0.00244956, 0.00222008, 0.0956353, 0.504267, 0.21348
55660.438958409009501, 0.00496005, -0.00244664, 0.00221103, 0.0956993, 0.503107, 0.213526
55660.472274709005433, 0.00493299, -0.00244618, 0.00220697, 0.0956138, 0.502602, 0.213637
55660.505591076005658, 0.00490768, -0.00244572, 0.00220262, 0.0956331, 0.502331, 0.213709
55660.538907381007448, 0.00486348, -0.00244356, 0.00219337, 0.0957829, 0.501767, 0.214093
55660.57222370900854, 0.00485783, -0.00244371, 0.0021925, 0.0957874, 0.501872, 0.2142
55660.605540076008765, 0.00485083, -0.00244368, 0.00219327, 0.0958592, 0.501949, 0.214418
55660.63885640900844, 0.00481649, -0.0024434, 0.00218782, 0.0959531, 0.50208, 0.21492
55660.67232274300477, 0.00480494, -0.0024422, 0.00218557, 0.0960555, 0.501706, 0.214921
55660.705639076004445, 0.00481045, -0.00244521, 0.00218762, 0.0957853, 0.502475, 0.215059
55660.73895540900412, 0.004814, -0.00244831, 0.00219044, 0.0955784, 0.503363, 0.215277
55660.77227171400591, 0.00484721, -0.0024456, 0.00219613, 0.0957861, 0.503313, 0.214988
55660.805588076007552, 0.0048747, -0.00244514, 0.00220216, 0.0959082, 0.50361, 0.214871
55660.838904376003484, 0.00486364, -0.00244489, 0.00220316, 0.0960855, 0.503534, 0.215132
55660.872220743003709, 0.00486196, -0.00244406, 0.00220421, 0.0962529, 0.503552, 0.215209
55660.905537076003384, 0.00484286, -0.00244595, 0.00220522, 0.0964037, 0.503991, 0.215521
55660.938853376006591, 0.0048721, -0.00245023, 0.002222, 0.0966715, 0.50567, 0.215778
55660.972169714004849, 0.00486428, -0.00245198, 0.002228, 0.0969859, 0.506569, 0.215957
55661.00563607600634, 0.00486981, -0.00245069, 0.00222877, 0.0970627, 0.506441, 0.215811
55661.038952409006015, 0.00489282, -0.00245275, 0.00224068, 0.0972024, 0.507439, 0.215717
55661.072268743009772, 0.0048476, -0.00245496, 0.00223706, 0.0971541, 0.507317, 0.21645
55661.105585076009447, 0.00480518, -0.00245519, 0.00223335, 0.0972831, 0.507089, 0.216799
55661.138901381003961, 0.00474993, -0.00245567, 0.00222547, 0.0973722, 0.506627, 0.217208
55661.172217714003637, 0.00469312, -0.00245902, 0.0022202, 0.0973378, 0.506493, 0.217945
55661.205534019005427, 0.00465015, -0.00246317, 0.00222218, 0.0973395, 0.5071, 0.218442
55661.238850376008486, 0.0045821, -0.00246819, 0.00221685, 0.0972668, 0.507132, 0.219277
55661.272166686008859, 0.00452997, -0.00247393, 0.00221341, 0.0971418, 0.507225, 0.220068
55661.305483076008386, 0.00453693, -0.00247712, 0.0022173, 0.0969958, 0.507432, 0.220282
55661.33894940900791, 0.00454004, -0.00248037, 0.00221828, 0.0968593, 0.50743, 0.220496
55661.3722657140097, 0.00454382, -0.00248267, 0.00221931, 0.0967653, 0.507492, 0.22056
55661.405582076004066, 0.00455414, -0.00248846, 0.00222319, 0.0965609, 0.507735, 0.220688
55661.438898347005306, 0.0045611, -0.00249045, 0.00222169, 0.0964752, 0.507646, 0.220682
55661.472214743007498, 0.0045224, -0.00250312, 0.002225, 0.096194, 0.508034, 0.221354
55661.50553104300343, 0.00449063, -0.00250658, 0.00222816, 0.0961651, 0.508265, 0.221812
55661.538847409006848, 0.00446841, -0.00250649, 0.00222513, 0.0962067, 0.508089, 0.222064
55661.57216374300333, 0.00444033, -0.00250924, 0.00222067, 0.0961757, 0.507953, 0.222354
55661.605480095007806, 0.0044184, -0.00251228, 0.00220992, 0.0961184, 0.507527, 0.222475
55661.638796376006212, 0.00440588, -0.00251953, 0.00221218, 0.0958849, 0.507979, 0.222445
55661.672112743006437, 0.00439029, -0.00252658, 0.00221759, 0.0957015, 0.508436, 0.222637
55661.705579200010106, 0.00435146, -0.00253364, 0.00221201, 0.0956023, 0.50833, 0.223128
55661.738895352005784, 0.0043235, -0.00253819, 0.00220521, 0.0955271, 0.508211, 0.223331
55661.772211709008843, 0.0043059, -0.0025382, 0.00220638, 0.0956499, 0.507966, 0.223726
55661.805528076009068, 0.00428453, -0.00253455, 0.00220721, 0.0960438, 0.507177, 0.224597
55661.838844409008743, 0.00430213, -0.00253097, 0.00221207, 0.0961922, 0.507028, 0.224623
55661.872160709004675, 0.00430448, -0.0025289, 0.00221655, 0.0963351, 0.50692, 0.224742
55661.905477047002933, 0.00429084, -0.00252764, 0.00223289, 0.0965111, 0.507209, 0.224941
55661.93879338100669, 0.00429546, -0.00252641, 0.00224538, 0.0966228, 0.507419, 0.224994
55661.972109747010109, 0.00427282, -0.00252954, 0.00224662, 0.096667, 0.507367, 0.225294
55662.00542604700604, 0.00429762, -0.00252447, 0.0022819, 0.0969171, 0.508086, 0.225028
55662.038892376003787, 0.00430644, -0.00251774, 0.0022925, 0.0971394, 0.508176, 0.224747
55662.072208743004012, 0.00430816, -0.00251283, 0.00229429, 0.0973495, 0.507981, 0.224606
55662.105525043007219, 0.00430819, -0.00251291, 0.00230722, 0.0974243, 0.508242, 0.224539
55662.138841376006894, 0.00428225, -0.00251469, 0.00231663, 0.0975179, 0.508417, 0.224574
55662.172157743007119, 0.00429029, -0.00251016, 0.00233077, 0.0976765, 0.508617, 0.224281
55662.205474043003051, 0.00428214, -0.00251024, 0.00234073, 0.0977314, 0.508865, 0.224166
55662.238790381008585, 0.00424335, -0.00251062, 0.00237014, 0.098042, 0.509237, 0.223972
55662.27210671400826, 0.0042387, -0.00251275, 0.00237606, 0.0980393, 0.509364, 0.223989
55662.305423076009902, 0.0042448, -0.00251916, 0.00238208, 0.0978916, 0.50967, 0.224112
55662.338739376005833, 0.00425836, -0.00252423, 0.00238298, 0.0977353, 0.509871, 0.224228
55662.372055714004091, 0.00427261, -0.00252723, 0.00238179, 0.097604, 0.51002, 0.224279
55662.405522047003615, 0.00428503, -0.00253792, 0.00238078, 0.0973323, 0.510373, 0.224483
55662.438838409005257, 0.00431071, -0.00255034, 0.00238213, 0.0969879, 0.510901, 0.224632
55662.472154742004932, 0.00430838, -0.00255275, 0.00238264, 0.0969459, 0.510981, 0.224668
55662.505471042008139, 0.00429594, -0.00256404, 0.00238928, 0.0967898, 0.511364, 0.224802
55662.538787409008364, 0.00429968, -0.0025688, 0.00239339, 0.0966857, 0.511618, 0.224807
55662.572103742008039, 0.004302, -0.00256715, 0.00238554, 0.0966823, 0.511465, 0.224832
55662.605420047009829, 0.00430457, -0.00256652, 0.00238289, 0.0966832, 0.511401, 0.224846
55662.638736409004196, 0.00428842, -0.00257464, 0.00238492, 0.0965616, 0.511665, 0.224923
55662.672052709007403, 0.00428517, -0.00258339, 0.00239318, 0.0963541, 0.512186, 0.224883
55662.705369047005661, 0.00426364, -0.00259286, 0.00237929, 0.0963348, 0.511943, 0.22532
55662.7388353520073, 0.0042452, -0.00260127, 0.00237701, 0.0961258, 0.51229, 0.225384
55662.772151742006827, 0.00422834, -0.00260687, 0.00237394, 0.0960673, 0.512347, 0.22554
55662.805468047008617, 0.0042549, -0.00260301, 0.00238296, 0.0961262, 0.512358, 0.225415
55662.838784409002983, 0.00425598, -0.00260251, 0.00238404, 0.0961859, 0.512277, 0.225429
55662.87210070900619, 0.00424035, -0.00260481, 0.00237369, 0.0965049, 0.511632, 0.225705
55662.90541701400798, 0.00424512, -0.00260557, 0.0023869, 0.0964509, 0.511894, 0.225635
55662.938733376009623, 0.00431292, -0.00259222, 0.00242027, 0.096546, 0.51219, 0.225122
55662.972049714007881, 0.00430712, -0.00259149, 0.00242755, 0.0967127, 0.512077, 0.225058
55663.005366047007556, 0.00429924, -0.00259437, 0.00242566, 0.0967922, 0.511969, 0.225108
55663.038682381004037, 0.00428472, -0.00259647, 0.00242152, 0.0968691, 0.511849, 0.22514
55663.071998742008873, 0.00428573, -0.002597, 0.00243073, 0.0971773, 0.511657, 0.224955
55663.105465076005203, 0.00426351, -0.00260326, 0.00243077, 0.0973868, 0.511484, 0.224943
55663.138781357003609, 0.00424569, -0.00260459, 0.0024245, 0.0975388, 0.511287, 0.224886
55663.172097742004553, 0.00426681, -0.00260047, 0.00243518, 0.0977012, 0.511284, 0.224612
55663.205414047006343, 0.00428167, -0.00259859, 0.00245918, 0.0980009, 0.511343, 0.224176
55663.238730376004241, 0.0042534, -0.00260387, 0.00245071, 0.0980229, 0.511235, 0.224285
55663.272046709003916, 0.00418153, -0.0026219, 0.00242735, 0.0978964, 0.511084, 0.22481
55663.305363076004141, 0.00413326, -0.00262943, 0.00242051, 0.0980469, 0.510885, 0.224832
55663.338679376007349, 0.00408043, -0.00263761, 0.00240341, 0.0980351, 0.510707, 0.225059
55663.371995742003492, 0.0040549, -0.00263168, 0.00240612, 0.0983064, 0.510479, 0.224732
55663.405312047005282, 0.00403895, -0.00263917, 0.00239921, 0.0982009, 0.510515, 0.224976
55663.438778376003029, 0.00395053, -0.00268794, 0.00238091, 0.0978057, 0.510854, 0.226088
55663.472094742006448, 0.00397057, -0.00268969, 0.00238372, 0.0976899, 0.511039, 0.226158
55663.505411076002929, 0.00394677, -0.0027064, 0.00237689, 0.0975382, 0.511204, 0.226515
55663.538727352010028, 0.00395531, -0.00270754, 0.00237644, 0.0974672, 0.511312, 0.226555
55663.572043714004394, 0.00400243, -0.00271588, 0.00238549, 0.0972037, 0.511851, 0.226703
55663.605360047004069, 0.00400931, -0.00272253, 0.00238899, 0.0970944, 0.512088, 0.2268
55663.638676376009244, 0.00401308, -0.0027277, 0.00239097, 0.0970137, 0.512262, 0.226872
55663.671992742005386, 0.00399383, -0.00273281, 0.00238383, 0.0969761, 0.512273, 0.226962
55663.705309047007177, 0.0039666, -0.00274348, 0.00238075, 0.0969146, 0.512388, 0.227105
55663.738625380006852, 0.00400973, -0.00273871, 0.00239283, 0.0968522, 0.512601, 0.227017
55663.77194170900475, 0.0040258, -0.0027402, 0.00239752, 0.0968053, 0.512734, 0.227007
55663.805408047002857, 0.00400081, -0.00274398, 0.00239196, 0.0968186, 0.512664, 0.227048
55663.838724380009808, 0.00407103, -0.00273532, 0.0024057, 0.0965351, 0.513269, 0.227067
55663.872040709007706, 0.00408167, -0.00273425, 0.00240875, 0.0965373, 0.513285, 0.227057
55663.905357076007931, 0.0040591, -0.00273931, 0.00240251, 0.0965139, 0.513286, 0.227119
55663.938673409007606, 0.0039629, -0.00277094, 0.00238767, 0.0964836, 0.513234, 0.227449
55663.971989709003537, 0.00393849, -0.00277457, 0.00238288, 0.0965055, 0.513176, 0.227466
55664.005306047009071, 0.00389587, -0.00278838, 0.00238628, 0.0967372, 0.512852, 0.227399
55664.038621664003585, 0.00387949, -0.00279638, 0.00238971, 0.0968038, 0.512753, 0.227414
55664.071937260006962, 0.00384516, -0.0028056, 0.00238702, 0.0968394, 0.512664, 0.227451
55664.105252798006404, 0.00380375, -0.00281609, 0.00237908, 0.0968477, 0.512579, 0.2275
55664.138718390007853, 0.00379385, -0.00281876, 0.00238017, 0.0970589, 0.512425, 0.227221
55664.172033924005518, 0.00379385, -0.00281876, 0.00238017, 0.0970589, 0.512425, 0.227221
55664.205349534007837, 0.00376529, -0.00282525, 0.00237802, 0.0972309, 0.512232, 0.226996
55664.23866506300692, 0.00377747, -0.00282619, 0.0023813, 0.097277, 0.512223, 0.226919
55664.271980630008329, 0.00372753, -0.00283345, 0.00237533, 0.0973113, 0.512082, 0.226886
55664.305296197009739, 0.00371446, -0.00283085, 0.00237774, 0.0974334, 0.511959, 0.226759
55664.338611759005289, 0.00378846, -0.00281615, 0.00239026, 0.09749, 0.512098, 0.226711
55664.371927360007248, 0.00382089, -0.0028093, 0.0023912, 0.0973804, 0.512296, 0.226871
55664.405242898006691, 0.00381483, -0.00281035, 0.0023872, 0.0973048, 0.512381, 0.226946
55664.438558522007952, 0.00381122, -0.00281906, 0.00238978, 0.0971195, 0.512414, 0.227276
55664.472024057009548, 0.00391905, -0.00281542, 0.00240851, 0.096863, 0.512786, 0.227719
55664.505339624003682, 0.00392062, -0.00281586, 0.0024087, 0.0968337, 0.512802, 0.227751
55664.538655191005091, 0.00388049, -0.00282916, 0.00240691, 0.0967429, 0.51258, 0.22776
55664.571970758006501, 0.003876, -0.00283129, 0.00240811, 0.0967222, 0.512514, 0.227787
55664.605286297010025, 0.0038696, -0.00283619, 0.00240936, 0.0966196, 0.512526, 0.227888
55664.638601893006125, 0.00384111, -0.00284428, 0.00240641, 0.0965661, 0.51246, 0.227799
55664.671917426006985, 0.00380257, -0.00284896, 0.00240163, 0.0965468, 0.512273, 0.227787
55664.705233027008944, 0.00375841, -0.00286058, 0.00239519, 0.0965966, 0.512103, 0.227376
55664.738548560009804, 0.00370566, -0.00287299, 0.00239605, 0.0967588, 0.511406, 0.226804
55664.771864161004487, 0.00359813, -0.00288674, 0.0023931, 0.0968417, 0.510387, 0.22652
55664.805179699003929, 0.00356399, -0.00289331, 0.00239042, 0.0968091, 0.510224, 0.226405
55664.838645291005378, 0.00348371, -0.00290656, 0.00238722, 0.0969122, 0.509462, 0.225897
55664.871960858006787, 0.0034629, -0.00290997, 0.00238777, 0.0969812, 0.509162, 0.225679
55664.905276368008344, 0.0034589, -0.00290712, 0.00238464, 0.0970595, 0.50926, 0.225647
55664.938591964004445, 0.0034448, -0.00291114, 0.00238133, 0.0969603, 0.509295, 0.225668
55664.971907526007271, 0.00332367, -0.00292373, 0.0023703, 0.0974057, 0.508394, 0.224484
55665.005223098007264, 0.00331074, -0.00292322, 0.00237308, 0.0975556, 0.507949, 0.224241
55665.038539375003893, 0.00327343, -0.00292554, 0.00236865, 0.0977371, 0.507769, 0.2238
55665.071855742004118, 0.00327715, -0.00292401, 0.00237079, 0.0977535, 0.507717, 0.223841
55665.105172075003793, 0.00318663, -0.00293525, 0.00235168, 0.0978751, 0.50764, 0.223131
55665.138488599004631, 0.00303813, -0.00294752, 0.00232175, 0.0982719, 0.507403, 0.221774
55665.17195470900333, 0.00305121, -0.00294511, 0.00232548, 0.098303, 0.507377, 0.221819
55665.205271018006897, 0.0030703, -0.00293839, 0.00233159, 0.0984022, 0.50737, 0.221894
55665.238587380008539, 0.00298206, -0.00294674, 0.00231007, 0.0985103, 0.507372, 0.221303
55665.271903709006438, 0.00291909, -0.00295513, 0.00229098, 0.0985139, 0.507614, 0.22089
55665.305220075009856, 0.00291731, -0.00295381, 0.00229047, 0.0985379, 0.507659, 0.220875
55665.338536409006338, 0.00291022, -0.0029609, 0.00228716, 0.0984335, 0.507629, 0.22088
55665.371852875003242, 0.00287888, -0.0029653, 0.00227667, 0.0984338, 0.507769, 0.220634
55665.405169047007803, 0.00291979, -0.00297416, 0.00228955, 0.0982215, 0.507622, 0.220989
55665.438485409009445, 0.00292615, -0.00298149, 0.00229172, 0.0980695, 0.507742, 0.221144
55665.471801713007153, 0.00295005, -0.00299615, 0.00229826, 0.0977551, 0.507994, 0.221475
55665.505118075008795, 0.00294535, -0.00299747, 0.00229692, 0.0977531, 0.507945, 0.221456
55665.538584380003158, 0.00296477, -0.00299913, 0.00230476, 0.0976941, 0.507963, 0.221588
55665.5719007420048, 0.00298473, -0.00299557, 0.00231433, 0.09776, 0.507674, 0.221657
55665.605220066005131, 0.00300099, -0.0030044, 0.00232413, 0.0976035, 0.507695, 0.221882
55665.638533380006265, 0.00297239, -0.00302163, 0.00232122, 0.0973829, 0.507777, 0.222072
55665.671850328006258, 0.00296678, -0.00302284, 0.00232317, 0.0973435, 0.507835, 0.222127
55665.705166047009698, 0.00297082, -0.00302364, 0.0023257, 0.097317, 0.507884, 0.22216
55665.738482409004064, 0.00300877, -0.0030234, 0.00234274, 0.0973184, 0.507805, 0.2222
55665.771798756009957, 0.0030226, -0.00302249, 0.00234727, 0.0973433, 0.507753, 0.222186
55665.805115075003414, 0.00304572, -0.0030204, 0.00235389, 0.0974082, 0.507657, 0.222142
55665.838431347008736, 0.00313506, -0.0030022, 0.00237783, 0.0976682, 0.507627, 0.221853
55665.871897709002951, 0.00312924, -0.00300279, 0.00237825, 0.0977185, 0.50747, 0.221844
55665.90521407500637, 0.00317922, -0.00299811, 0.00239722, 0.097769, 0.507545, 0.221759
55665.938530409010127, 0.00325686, -0.00299032, 0.00241868, 0.0977682, 0.507904, 0.22163
55665.971846999003901, 0.00330906, -0.00298573, 0.00243565, 0.097696, 0.508302, 0.221561
55666.005163075009477, 0.00341568, -0.00297145, 0.00246804, 0.0977376, 0.508888, 0.221289
55666.038479409005959, 0.00346563, -0.00296802, 0.00248416, 0.0976796, 0.509218, 0.22121
55666.071795742005634, 0.00355899, -0.0029603, 0.00251275, 0.0976688, 0.50972, 0.221008
55666.105112075005309, 0.0035953, -0.00295597, 0.00252282, 0.0978652, 0.509589, 0.220866
55666.138428409009066, 0.00366273, -0.00295616, 0.00253893, 0.0977625, 0.509861, 0.220827
55666.171744742008741, 0.00369377, -0.00296005, 0.00254801, 0.0975684, 0.510185, 0.220857
55666.205061075008416, 0.00375171, -0.00296618, 0.00257302, 0.0972866, 0.510753, 0.220831
55666.238527380010055, 0.00383025, -0.00296396, 0.00259642, 0.0971306, 0.51136, 0.220723
55666.27184371300973, 0.0038802, -0.00296377, 0.00261091, 0.0970226, 0.511679, 0.220669
55666.305164599005366, 0.00394898, -0.00296779, 0.00263876, 0.096845, 0.512088, 0.220571
55666.338476375007303, 0.00396614, -0.00296911, 0.00265298, 0.0968314, 0.512198, 0.220533
55666.371792742007528, 0.00395598, -0.00297295, 0.00265454, 0.096795, 0.512095, 0.22054
55666.405109075007204, 0.00396079, -0.0029801, 0.00266721, 0.0967265, 0.512097, 0.22049
55666.43842534700525, 0.00395518, -0.0029807, 0.00266632, 0.0967385, 0.512054, 0.220494
55666.47174174200336, 0.00395552, -0.00298751, 0.00267229, 0.0966446, 0.512001, 0.220404
55666.505058075003035, 0.00396152, -0.00299474, 0.00268205, 0.0966049, 0.511827, 0.220342
55666.538374409006792, 0.00396183, -0.00300546, 0.00269174, 0.0966134, 0.511389, 0.220252
55666.571840713004349, 0.00394998, -0.0030136, 0.00269935, 0.0967244, 0.510809, 0.220225
55666.605157075005991, 0.00392364, -0.00302097, 0.00269956, 0.0967471, 0.510437, 0.220147
55666.638473409009748, 0.00390739, -0.00302498, 0.00270074, 0.0967576, 0.510173, 0.220086
55666.671789742009423, 0.00389161, -0.00303023, 0.0027041, 0.096739, 0.509928, 0.219981
55666.705106042005355, 0.00388912, -0.00303286, 0.00270692, 0.0967154, 0.509835, 0.219923
55666.738422380003612, 0.00388116, -0.00303301, 0.00270778, 0.0966465, 0.509908, 0.219942
55666.771738713003288, 0.00384575, -0.00303638, 0.00270688, 0.0966943, 0.509538, 0.219862
55666.805055047007045, 0.0038454, -0.00303687, 0.00270761, 0.0967012, 0.509508, 0.219844
55666.83837138000672, 0.00382291, -0.00304043, 0.00271253, 0.0968121, 0.509039, 0.219785
55666.871687713006395, 0.00378902, -0.00304476, 0.00271356, 0.0967366, 0.508793, 0.21961
55666.905004042004293, 0.00376709, -0.00304288, 0.00270439, 0.0964031, 0.509219, 0.219686
55666.938470408007561, 0.00374891, -0.00304455, 0.00270528, 0.0964054, 0.508974, 0.219575
55666.971786708003492, 0.00372801, -0.00304746, 0.0027117, 0.0965516, 0.508372, 0.219456
55667.005103042007249, 0.00371688, -0.00304921, 0.00271963, 0.0966979, 0.507891, 0.219344
55667.038419375006924, 0.00372928, -0.00305035, 0.00272197, 0.0967785, 0.507948, 0.21933
55667.071735742007149, 0.00371715, -0.00305099, 0.00272399, 0.0968513, 0.507685, 0.219297
55667.105052075006824, 0.00370738, -0.00305225, 0.00272458, 0.0969034, 0.507582, 0.219223
55667.1383684080065, 0.00374847, -0.00305225, 0.00272383, 0.0969432, 0.508239, 0.219363
55667.171684742002981, 0.00376521, -0.00305432, 0.0027255, 0.097053, 0.508497, 0.219306
55667.205001047004771, 0.0037633, -0.00305461, 0.00272621, 0.097088, 0.508476, 0.219294
55667.238317347007978, 0.00374706, -0.00305714, 0.00272909, 0.0973083, 0.508126, 0.218822
55667.271783742005937, 0.00372969, -0.00306104, 0.00272599, 0.0974494, 0.508084, 0.218308
55667.305100042009144, 0.0037659, -0.00305986, 0.00272784, 0.0974002, 0.508543, 0.218541
55667.338416408005287, 0.00375636, -0.00306035, 0.00272657, 0.0974375, 0.508505, 0.21848
55667.371732708008494, 0.00375442, -0.00306026, 0.00272658, 0.0974409, 0.508463, 0.218472
55667.405049075008719, 0.00380254, -0.00305681, 0.00273901, 0.0972436, 0.508137, 0.218906
55667.438365380003233, 0.00380254, -0.00305681, 0.00273901, 0.0972436, 0.508137, 0.218906
55667.471681742004876, 0.00376588, -0.00305812, 0.00272226, 0.0974047, 0.508734, 0.218607
55667.504998075004551, 0.00378362, -0.00305843, 0.00273021, 0.0973358, 0.508426, 0.218646
55667.538314375007758, 0.00379357, -0.00305931, 0.00273486, 0.0972688, 0.508375, 0.218714
55667.571630713006016, 0.00381867, -0.0030601, 0.0027466, 0.0971456, 0.508178, 0.218904
55667.605097075007507, 0.00382055, -0.00306264, 0.00274418, 0.0969987, 0.508941, 0.219243
55667.638413408007182, 0.00381641, -0.00306159, 0.00273817, 0.0971348, 0.508858, 0.21889
55667.671729742003663, 0.00383338, -0.00306158, 0.00275321, 0.0971514, 0.507811, 0.218626
55667.705046018003486, 0.00385411, -0.00306306, 0.00275923, 0.0971521, 0.507573, 0.218329
55667.738362408003013, 0.00383339, -0.0030556, 0.00274615, 0.0973547, 0.507092, 0.218093
55667.771678713004803, 0.00385248, -0.00305865, 0.00275761, 0.0974709, 0.505917, 0.217107
55667.804995794009301, 0.00387322, -0.00306178, 0.00276424, 0.0974813, 0.505726, 0.216755
55667.83831140800612, 0.00389225, -0.00306397, 0.00277104, 0.0975172, 0.505361, 0.216383
55667.871627746004378, 0.00389631, -0.00306143, 0.0027716, 0.0975908, 0.504939, 0.216243
55667.904944089008495, 0.00389097, -0.00306436, 0.00277647, 0.0975772, 0.504581, 0.216003
55667.938260380004067, 0.00389611, -0.0030705, 0.00278467, 0.0975346, 0.504399, 0.215662
55667.971726742005558, 0.00389481, -0.00306903, 0.00278401, 0.0975462, 0.504318, 0.215672
55668.005043042008765, 0.00384357, -0.0030666, 0.00277587, 0.0976007, 0.503808, 0.21572
55668.038359380007023, 0.00382026, -0.00306464, 0.00277223, 0.0976161, 0.503629, 0.21587
55668.071675742008665, 0.00378567, -0.0030668, 0.00277032, 0.0975646, 0.503641, 0.216117
55668.10499207500834, 0.00377797, -0.00306803, 0.00277011, 0.0975586, 0.503588, 0.216131
55668.138308408008015, 0.00377386, -0.0030715, 0.00276931, 0.0975228, 0.503829, 0.215892
55668.171624713009805, 0.0037534, -0.00307138, 0.00276499, 0.0975454, 0.50368, 0.215929
55668.204941075004172, 0.00374089, -0.00307791, 0.00276198, 0.0975013, 0.503902, 0.215603
55668.238257380005962, 0.00373747, -0.00307696, 0.00276092, 0.0975209, 0.503776, 0.215641
55668.271573742007604, 0.00373284, -0.00307559, 0.0027605, 0.0975523, 0.503568, 0.215745
55668.305043189007847, 0.0037073, -0.00306394, 0.00275972, 0.0976972, 0.502321, 0.216563
55668.338356408006803, 0.00370295, -0.00306088, 0.00276036, 0.0977285, 0.502063, 0.21679
55668.371672742003284, 0.00370088, -0.00305791, 0.00275925, 0.097811, 0.50136, 0.216962
55668.404989042006491, 0.00370446, -0.00305286, 0.00276034, 0.0979669, 0.500025, 0.21738
55668.438305375006166, 0.00371416, -0.00305146, 0.00276164, 0.0980162, 0.499853, 0.21734
55668.471621713004424, 0.00370351, -0.00305072, 0.00276163, 0.0980346, 0.499731, 0.217451
55668.504938075006066, 0.00370003, -0.00305146, 0.00276557, 0.0980087, 0.499656, 0.217836
55668.538254375009274, 0.00370534, -0.00305119, 0.0027655, 0.0980628, 0.4995, 0.217744
55668.571570713007532, 0.00371416, -0.00304994, 0.00276437, 0.0981269, 0.499391, 0.21753
55668.604887075009174, 0.00373166, -0.00304565, 0.00275098, 0.0981647, 0.499647, 0.216571
55668.638203408008849, 0.00368382, -0.00305321, 0.00275206, 0.0980581, 0.49975, 0.217113
55668.671669708004629, 0.00361295, -0.00306394, 0.00274876, 0.0978904, 0.499988, 0.217649
55668.704986075004854, 0.00360992, -0.00306267, 0.00274776, 0.0978952, 0.499985, 0.217609
55668.738302380006644, 0.00361364, -0.0030621, 0.00274863, 0.0979196, 0.49996, 0.21758
55668.771618708007736, 0.00362628, -0.00305854, 0.00275948, 0.0980286, 0.499978, 0.217414
55668.804935075007961, 0.00362269, -0.00306282, 0.00276118, 0.0979806, 0.500084, 0.217509
55668.838251408007636, 0.00366142, -0.00306411, 0.00278278, 0.0981245, 0.500227, 0.217265
55668.871567713009426, 0.00367704, -0.00305866, 0.00279084, 0.0982706, 0.500135, 0.217028
55668.904884042007325, 0.0036897, -0.00305966, 0.00280865, 0.0984338, 0.500251, 0.216723
55668.938200408003468, 0.00369933, -0.00305981, 0.00281639, 0.0984836, 0.500311, 0.2166
55668.971516713005258, 0.00369881, -0.00305863, 0.00281894, 0.0985354, 0.500287, 0.216514
55669.004983022008673, 0.00370813, -0.00305635, 0.00285592, 0.0988846, 0.500474, 0.215712
55669.038299408006424, 0.00372929, -0.0030604, 0.00287439, 0.0990274, 0.500677, 0.215373
55669.071615742002905, 0.00372597, -0.00304658, 0.00290811, 0.099365, 0.500596, 0.214532
55669.104932075009856, 0.00371988, -0.00306474, 0.00293265, 0.0994303, 0.501224, 0.21407
55669.138248375005787, 0.00369505, -0.00303945, 0.00299108, 0.100031, 0.500988, 0.212527
55669.171564741009206, 0.00369373, -0.00302904, 0.0030243, 0.100325, 0.500965, 0.211696
55669.204881075005687, 0.00372923, -0.00301304, 0.00302915, 0.100285, 0.500647, 0.211695
55669.238197346006928, 0.00376674, -0.00302311, 0.00302601, 0.09992, 0.501038, 0.211989
55669.271513741005037, 0.00378294, -0.0030189, 0.00302038, 0.0997983, 0.500927, 0.212204
55669.304833137008245, 0.00381093, -0.00299677, 0.0030217, 0.0999864, 0.500259, 0.21225
55669.33814640800847, 0.00386072, -0.00297948, 0.00302434, 0.100036, 0.4998, 0.212365
55669.371612741007993, 0.00381336, -0.00296677, 0.00300317, 0.10012, 0.499155, 0.212777
55669.404929075004475, 0.00381868, -0.00296611, 0.00300582, 0.100187, 0.499098, 0.212739
55669.438245351004298, 0.00388128, -0.00297207, 0.00303236, 0.100255, 0.499506, 0.21223
55669.47156171300594, 0.00393408, -0.00298314, 0.00305797, 0.100442, 0.500006, 0.211683
55669.504878075007582, 0.00402524, -0.00299621, 0.00309393, 0.100634, 0.50067, 0.210996
55669.538194408007257, 0.0040746, -0.00301125, 0.00311682, 0.100626, 0.501401, 0.210477
55669.571510708003188, 0.0040668, -0.00301081, 0.00310847, 0.100512, 0.501399, 0.210659
55669.604827075003413, 0.00404452, -0.00301324, 0.00309144, 0.100486, 0.50134, 0.211059
55669.638143375006621, 0.00400828, -0.00300739, 0.00307311, 0.100407, 0.501031, 0.211445
55669.67145974101004, 0.0040244, -0.00301302, 0.0030764, 0.100418, 0.501259, 0.211404
55669.704926137004804, 0.00399064, -0.00302078, 0.00306256, 0.100516, 0.501331, 0.211696
55669.738242351006193, 0.00391797, -0.00301125, 0.00303869, 0.100573, 0.500756, 0.212137
55669.77155874100572, 0.00390919, -0.0030169, 0.0030298, 0.100523, 0.500892, 0.212342
55669.804875075009477, 0.00388622, -0.00301637, 0.00302213, 0.100414, 0.500868, 0.212425
55669.838191370006825, 0.00385034, -0.00299371, 0.00299049, 0.100427, 0.499844, 0.213258
55669.87150774600741, 0.00381329, -0.00297483, 0.0029644, 0.100367, 0.499036, 0.213872
55669.904824075005308, 0.00378021, -0.00297736, 0.00293619, 0.100206, 0.49896, 0.214508
55669.938140408004983, 0.0038043, -0.00296797, 0.00292151, 0.100137, 0.498578, 0.215029
55669.971456713006773, 0.00378318, -0.00296148, 0.00290616, 0.100127, 0.498235, 0.215394
55670.004773075008416, 0.00375542, -0.00295652, 0.00288793, 0.100072, 0.497935, 0.215796
55670.038089408008091, 0.00366413, -0.00295855, 0.00285334, 0.100033, 0.49768, 0.216429
55670.071555708003871, 0.00364659, -0.00295449, 0.00284356, 0.100024, 0.497466, 0.216637
55670.104872075004096, 0.00363472, -0.00293424, 0.00283221, 0.100096, 0.496684, 0.216919
55670.13818837900908, 0.00363223, -0.00293322, 0.00282848, 0.100169, 0.49657, 0.217035
55670.171504746009305, 0.00362081, -0.00293307, 0.00282322, 0.10019, 0.496502, 0.217144
55670.204821075007203, 0.00359294, -0.00292613, 0.00281011, 0.10024, 0.49613, 0.217409
55670.238137375003134, 0.00357045, -0.00292261, 0.00280031, 0.10027, 0.49591, 0.217599
55670.271453741006553, 0.00346034, -0.00291632, 0.00275594, 0.100221, 0.495341, 0.218392
55670.304773022005975, 0.00341628, -0.00291124, 0.00273546, 0.100235, 0.494992, 0.218792
55670.338086375006242, 0.00340785, -0.00290825, 0.00273304, 0.100255, 0.494862, 0.218823
55670.371402708005917, 0.00337095, -0.00290906, 0.00271886, 0.100295, 0.49473, 0.219082
55670.40486907500599, 0.00328706, -0.00289336, 0.00268139, 0.100333, 0.493882, 0.219792
55670.438185408005666, 0.00322695, -0.00288078, 0.0026563, 0.10032, 0.493275, 0.220238
55670.471501708008873, 0.00315911, -0.00286417, 0.00262588, 0.100254, 0.492534, 0.22079
55670.504818046007131, 0.00306553, -0.00284349, 0.00258296, 0.100204, 0.491547, 0.221596
55670.538134408008773, 0.00304816, -0.00284653, 0.00257677, 0.100166, 0.491612, 0.221697
55670.571450746007031, 0.00305048, -0.00285163, 0.00257937, 0.10009, 0.491851, 0.221613
55670.604767046002962, 0.00305699, -0.00285578, 0.00257616, 0.0999513, 0.492069, 0.221693
55670.638083375008136, 0.00303156, -0.00284515, 0.00255088, 0.0998234, 0.491641, 0.222283
55670.671399684004427, 0.00300582, -0.00284195, 0.00254133, 0.0997959, 0.491479, 0.222446
55670.704716041007487, 0.00299834, -0.00283627, 0.00254386, 0.099914, 0.491208, 0.22238
55670.73818240800756, 0.0029861, -0.00281957, 0.00253219, 0.0999657, 0.490537, 0.222702
55670.771499270005734, 0.00295789, -0.00279855, 0.00251063, 0.0998932, 0.489755, 0.223209
55670.804815075003717, 0.00294975, -0.00278503, 0.00249395, 0.0997686, 0.489305, 0.223651
55670.838131408003392, 0.00294184, -0.00279549, 0.0024828, 0.0996798, 0.489649, 0.223947
55670.871447741003067, 0.00292398, -0.00278433, 0.00247831, 0.0997866, 0.489148, 0.224041
55670.904764075006824, 0.0029081, -0.00277356, 0.00246966, 0.0998599, 0.488654, 0.224272
55670.938080375010031, 0.00289953, -0.00278571, 0.00247535, 0.099894, 0.489059, 0.224031
55670.971396708009706, 0.00292237, -0.0027921, 0.00250638, 0.100101, 0.489315, 0.223147
55671.004713046007964, 0.00293131, -0.00279193, 0.00251807, 0.100168, 0.489333, 0.222809
55671.038029379007639, 0.0029561, -0.00279497, 0.00252903, 0.100291, 0.489439, 0.222578
55671.07134568400943, 0.00299679, -0.00279986, 0.00254753, 0.100463, 0.489635, 0.222166
55671.104812046003644, 0.0030077, -0.00280409, 0.00255232, 0.100515, 0.489786, 0.222055
55671.138128375008819, 0.00304447, -0.00280001, 0.00256552, 0.10064, 0.48967, 0.221809
55671.171444741004962, 0.00306609, -0.00279082, 0.00257932, 0.100711, 0.489393, 0.221467
55671.204761075008719, 0.00305166, -0.00280247, 0.00259981, 0.100592, 0.489951, 0.220696
55671.238077408008394, 0.0030679, -0.00280752, 0.00262155, 0.100638, 0.490226, 0.220044
55671.271393741008069, 0.00311156, -0.00280323, 0.00264917, 0.100835, 0.490168, 0.219341
55671.30471007500455, 0.00315702, -0.00279741, 0.00267452, 0.100979, 0.490069, 0.218726
55671.338026375007757, 0.00316171, -0.00279405, 0.00266409, 0.101021, 0.489906, 0.219085
55671.371343422004429, 0.00317928, -0.00279617, 0.00267082, 0.101046, 0.490022, 0.21895
55671.404659041007108, 0.0032419, -0.00280357, 0.00271887, 0.100971, 0.490548, 0.217719
55671.438125408007181, 0.00325302, -0.00280582, 0.0027372, 0.100909, 0.490712, 0.217189
55671.471441741006856, 0.00325218, -0.00280905, 0.00273231, 0.100841, 0.49082, 0.217333
55671.504758074006531, 0.0032679, -0.00280569, 0.00274438, 0.10089, 0.49076, 0.217029
55671.538074379008322, 0.00325701, -0.00281319, 0.00274784, 0.100847, 0.491019, 0.216879
55671.57139070800622, 0.00325522, -0.00281483, 0.00274988, 0.100776, 0.491075, 0.216797
55671.604707074009639, 0.00323915, -0.00283065, 0.00272116, 0.100677, 0.491522, 0.217589
55671.63802340800612, 0.00323807, -0.00283833, 0.00272513, 0.100583, 0.491795, 0.21745
55671.671339741005795, 0.00321714, -0.00286482, 0.0027138, 0.100423, 0.492638, 0.21769
55671.704656041009002, 0.00323003, -0.00286025, 0.00272168, 0.100424, 0.492526, 0.217509
55671.73797237900726, 0.0032369, -0.00285779, 0.00272338, 0.100417, 0.49246, 0.21748
55671.771288717005518, 0.00323228, -0.00287123, 0.00271567, 0.100372, 0.492872, 0.217685
55671.804755074008426, 0.00322058, -0.00288172, 0.00270504, 0.10036, 0.493166, 0.217938
55671.838071374004357, 0.00320725, -0.00288521, 0.00269758, 0.100389, 0.493235, 0.218096
55671.871387703009532, 0.00317172, -0.00289583, 0.00268213, 0.100373, 0.493472, 0.218364
55671.904704074004258, 0.00315745, -0.00290416, 0.00267248, 0.100391, 0.493679, 0.218569
55671.938020374007465, 0.00314124, -0.00291232, 0.00266, 0.100439, 0.493868, 0.218836
55671.971336751004856, 0.00310018, -0.00292965, 0.00263623, 0.100398, 0.494262, 0.219245
55672.004653074007365, 0.00300212, -0.0029895, 0.00256844, 0.100383, 0.495696, 0.220509
55672.037969408003846, 0.00300831, -0.00298967, 0.00256556, 0.100375, 0.495703, 0.220578
55672.071285679005086, 0.00300013, -0.0029902, 0.00255499, 0.100424, 0.495677, 0.220778
55672.104602046005311, 0.00300079, -0.00299085, 0.00254851, 0.100458, 0.495673, 0.220914
55672.138068412008579, 0.00298511, -0.00300256, 0.00252024, 0.100313, 0.495915, 0.221323
55672.171384941008, 0.00300512, -0.00300336, 0.00252187, 0.10029, 0.495967, 0.221327
55672.204701074006152, 0.00301597, -0.00300622, 0.00252198, 0.10021, 0.496073, 0.221309
55672.23801740800991, 0.00302513, -0.00300854, 0.0025202, 0.100159, 0.496151, 0.221335
55672.271333741009585, 0.00303273, -0.00300915, 0.00251703, 0.100146, 0.496169, 0.221399
55672.30465007400926, 0.00305666, -0.00301188, 0.00250741, 0.100092, 0.49625, 0.221586
55672.337966408005741, 0.00306845, -0.00301325, 0.0025027, 0.100055, 0.496294, 0.221672
55672.371282712003449, 0.00306209, -0.0030133, 0.00250045, 0.100063, 0.496275, 0.221702
55672.404599046007206, 0.00306684, -0.00300601, 0.00249504, 0.10007, 0.496063, 0.221793
55672.437915408008848, 0.00307138, -0.00300525, 0.00248762, 0.100017, 0.496046, 0.221888
55672.471231712006556, 0.00306712, -0.00300176, 0.00247444, 0.0999839, 0.495911, 0.222081
55672.504698074008047, 0.00308328, -0.00298861, 0.00246415, 0.0999728, 0.495539, 0.222272
55672.538014408004528, 0.00310507, -0.00297491, 0.00246027, 0.0999364, 0.495207, 0.222328
55672.571330708007736, 0.0031234, -0.00295646, 0.00244589, 0.0998869, 0.494702, 0.22257
55672.604647074003879, 0.00315404, -0.00293491, 0.00243009, 0.0998332, 0.49412, 0.222877
55672.637963374007086, 0.00317807, -0.00288998, 0.00241458, 0.0998226, 0.492873, 0.223146
55672.671279741007311, 0.00319898, -0.0028622, 0.00240308, 0.0997685, 0.492134, 0.223332
55672.704596074006986, 0.00320127, -0.002846, 0.00240416, 0.0998903, 0.491599, 0.223417
55672.737912408003467, 0.00319788, -0.00281542, 0.00239753, 0.100002, 0.490628, 0.22362
55672.771228679004707, 0.00320923, -0.00280446, 0.00239316, 0.0999917, 0.490319, 0.223741
55672.804545046004932, 0.00320225, -0.00281704, 0.00239116, 0.0999272, 0.490713, 0.223716
55672.838011374005873, 0.00318593, -0.00283143, 0.00239885, 0.100057, 0.49105, 0.223597
55672.87132770800963, 0.00320896, -0.00282294, 0.00240437, 0.100254, 0.490709, 0.223728
55672.904644074005773, 0.00320873, -0.00282705, 0.00240742, 0.100296, 0.490817, 0.223684
55672.937960408009531, 0.00321295, -0.00282591, 0.0024139, 0.10038, 0.490769, 0.223588
55672.971276708005462, 0.0032197, -0.00282457, 0.00241385, 0.100408, 0.490721, 0.223644
55673.004593041005137, 0.00323026, -0.00282311, 0.0024208, 0.100471, 0.490685, 0.223538
55673.037909408005362, 0.00323626, -0.00283011, 0.00243103, 0.100498, 0.490936, 0.223282
55673.07122571200307, 0.00322919, -0.00283857, 0.00244213, 0.10051, 0.491228, 0.222926
55673.10454201700486, 0.00324496, -0.00283455, 0.00244615, 0.100582, 0.491112, 0.222941
55673.137858408008469, 0.00324679, -0.00283521, 0.00244819, 0.100659, 0.491112, 0.222963
55673.171174712006177, 0.00324494, -0.00283471, 0.00245281, 0.100706, 0.491097, 0.222857
55673.204641012009233, 0.00323707, -0.00283617, 0.00245687, 0.100722, 0.491144, 0.222713
55673.237957408004149, 0.0032236, -0.0028376, 0.00246127, 0.100761, 0.491179, 0.222555
55673.271273741003824, 0.00322152, -0.00283755, 0.00246155, 0.10077, 0.491175, 0.222547
55673.304590074003499, 0.00320291, -0.00286975, 0.00246054, 0.100654, 0.492142, 0.22239
55673.337906360007764, 0.00329329, -0.00288009, 0.00246042, 0.100565, 0.492572, 0.222707
55673.371222741006932, 0.00331234, -0.00286229, 0.00246435, 0.100656, 0.492058, 0.222769
55673.404539074006607, 0.00331234, -0.00286229, 0.00246435, 0.100656, 0.492058, 0.222769
55673.437855374009814, 0.0033531, -0.0028769, 0.00245702, 0.100582, 0.492531, 0.223082
55673.471171712008072, 0.00344392, -0.00288999, 0.00245247, 0.100506, 0.493016, 0.223523
55673.504488074009714, 0.00347091, -0.00290951, 0.00244801, 0.100413, 0.493613, 0.223649
55673.537954408006044, 0.00347788, -0.00291401, 0.00244298, 0.100377, 0.493738, 0.22377
55673.571274103007454, 0.00348835, -0.00292425, 0.00244118, 0.100298, 0.494049, 0.223737
55673.604587041008926, 0.00348288, -0.00291724, 0.00244877, 0.100367, 0.493861, 0.223621
55673.637903407005069, 0.00349079, -0.00291645, 0.00244329, 0.100425, 0.493813, 0.223913
55673.671219741008827, 0.00348474, -0.00291941, 0.00243941, 0.100431, 0.49387, 0.224008
55673.704536074008502, 0.00348208, -0.00291583, 0.00243907, 0.100423, 0.493774, 0.22399
55673.737852407008177, 0.00347204, -0.00291686, 0.00243929, 0.100356, 0.493814, 0.223812
55673.771168707004108, 0.00344207, -0.00292753, 0.00243573, 0.10029, 0.494065, 0.223661
55673.804485022003064, 0.0034166, -0.00293742, 0.00243191, 0.100241, 0.49428, 0.223552
55673.837801407004008, 0.00341558, -0.00294406, 0.00243016, 0.100225, 0.494431, 0.223531
55673.871267741007614, 0.00338457, -0.00295657, 0.00242192, 0.100252, 0.494641, 0.223635
55673.904584041003545, 0.00337505, -0.00296854, 0.00241323, 0.100311, 0.494842, 0.223849
55673.937900407006964, 0.00340946, -0.00296982, 0.0024101, 0.100408, 0.494862, 0.224152
