time, bias_gyr_x, bias_gyr_y, bias_gyr_z, bias_acc_x, bias_acc_y, bias_acc_z
-1, 0, 0, 0, 0, 0, 0
844.56002307599999313, 0, 0, 0, 0, 0, 0
844.59333940900000925, -0.0273762, -0.0373145, -0.00433305, 8.43302e-05, -4.68804e-05, -8.93242e-05
844.62665570900003331, -0.0276556, -0.0352089, -0.00974579, 0.00271644, 9.42838e-05, -0.000852816
844.65997207600003094, -0.0291643, -0.0269299, -0.0106444, -0.00943092, -0.00304095, 0.00123664
844.69328838100000212, -0.0354488, -0.0246945, -0.00703051, -0.0167206, -0.00298595, 0.00203482
844.72660471400001825, -0.0350417, -0.0198813, -0.00424068, -0.0641872, -0.00653888, 0.00777374
844.75992107599995506, -0.0336273, -0.0172525, -0.00286522, -0.158171, -0.0137367, 0.0184066
844.79323740899997119, -0.0260166, -0.0143948, -0.00413457, -0.181311, -0.0155077, 0.0203988
844.82655374299997675, -0.022716, -0.0130423, -0.0053058, -0.207447, -0.0177356, 0.0226412
844.86002004299996315, -0.0233966, -0.0131179, -0.00707607, -0.224124, -0.0193755, 0.024475
844.89333640899997135, -0.0253532, -0.0122967, -0.00727981, -0.208296, -0.0179587, 0.0243587
844.92665274299997691, -0.0267192, -0.0115063, -0.00720975, -0.188167, -0.0161636, 0.0240829
844.95996907599999304, -0.0260349, -0.00987799, -0.00782475, -0.174834, -0.0148912, 0.0237447
844.99328964699998323, -0.0253632, -0.0101889, -0.00830485, -0.154899, -0.0130014, 0.0226433
845.02660174300001472, -0.0260759, -0.00912772, -0.00837225, -0.140147, -0.0116176, 0.0217462
845.05991807600003085, -0.0270418, -0.00718724, -0.00801794, -0.138758, -0.0114097, 0.0213415
845.09323440900004698, -0.0282414, -0.00598168, -0.0074264, -0.13158, -0.0107516, 0.0192029
845.12655074200006311, -0.0296058, -0.00436799, -0.00647759, -0.126122, -0.0103159, 0.0170364
845.15986707599995498, -0.0304868, -0.00131717, -0.00554426, -0.126864, -0.0104451, 0.0154047
845.19318340899997111, -0.0298559, 0.00108284, -0.00521781, -0.121876, -0.00840511, 0.0122296
845.22664974200006327, -0.0291013, 0.00307314, -0.00482365, -0.116608, -0.00590847, 0.00860009
845.25996603800001594, -0.0293189, 0.00332811, -0.00464666, -0.113018, -0.00387077, 0.00386725
845.29328240899997127, -0.0285084, 0.00354379, -0.00466039, -0.10981, -0.00119445, -0.00212864
845.3265987419999874, -0.0275213, 0.003483, -0.00464542, -0.106602, 0.00224259, -0.00797079
845.35991504200001145, -0.0263876, 0.00302474, -0.00500297, -0.10239, 0.00702671, -0.0176864
845.39323140900000908, -0.0252396, 0.00273918, -0.00548325, -0.0967872, 0.0144933, -0.0333643
845.42654771399998026, -0.0236986, 0.00223331, -0.00646598, -0.0932302, 0.0198525, -0.0449636
845.45986470000002555, -0.0216468, 0.00173556, -0.00754685, -0.0897071, 0.026184, -0.0586188
845.49318037600005482, -0.0212967, 0.00130416, -0.00772762, -0.0875364, 0.0313105, -0.0694365
845.52649670899995726, -0.0210332, 0.000585035, -0.00793755, -0.086422, 0.0345763, -0.0778924
845.55996304699999655, -0.0205911, -0.000470109, -0.00832258, -0.086418, 0.0349739, -0.0782521
845.59327940900004705, -0.0205416, -0.00140204, -0.00849056, -0.0862102, 0.0343474, -0.0754868
845.62659574200006318, -0.0207238, -0.0020076, -0.00856252, -0.085742, 0.0345246, -0.0802086
845.65991204199997355, -0.0204217, -0.00245572, -0.00883499, -0.0839185, 0.0328788, -0.086426
845.69322840899997118, -0.0201398, -0.00269411, -0.00909938, -0.0824491, 0.031641, -0.0873188
845.72654471400005605, -0.0202546, -0.0030259, -0.00924847, -0.0812465, 0.0282783, -0.102339
845.75986107599999286, -0.0201161, -0.00323394, -0.00944989, -0.0809382, 0.0257643, -0.115486
845.79317740900000899, -0.0197737, -0.00346411, -0.00970568, -0.0793723, 0.0216621, -0.12171
845.82649374200002512, -0.0192448, -0.00350765, -0.0100769, -0.0790797, 0.0201926, -0.128342
845.85981004200004918, -0.0190009, -0.00364841, -0.0104054, -0.0779836, 0.0175076, -0.136935
845.89312637600005473, -0.0188633, -0.003686, -0.0105828, -0.0775631, 0.0147435, -0.143718
845.92659270900003321, -0.0187784, -0.00375871, -0.010589, -0.076072, 0.0118473, -0.144495
845.95990907600003084, -0.018589, -0.00396629, -0.0106047, -0.073416, 0.00644413, -0.144365
845.99322540900004697, -0.0182153, -0.00382088, -0.0106761, -0.0749918, 0.0119795, -0.151213
846.0265417420000631, -0.0180362, -0.00361685, -0.0103912, -0.0750766, 0.0151088, -0.152334
846.05985804700003428, -0.0178765, -0.00340306, -0.00996683, -0.0712683, 0.00923932, -0.149621
846.09317440899997109, -0.0173734, -0.00328584, -0.00988495, -0.0691796, 0.00805303, -0.145845
846.12649074199998722, -0.0168777, -0.00340944, -0.00987709, -0.0662544, 0.00311877, -0.140366
846.15980707599999278, -0.0168437, -0.00334443, -0.00962201, -0.0682546, 0.00940307, -0.142315
846.19312337999997453, -0.0164584, -0.00307657, -0.00954364, -0.0714964, 0.0219105, -0.147025
846.22643971399998009, -0.0162013, -0.00288886, -0.00941255, -0.0695553, 0.0203896, -0.140973
846.25990604200001144, -0.016153, -0.00290335, -0.00930603, -0.0676663, 0.0167468, -0.135578
846.29322237600001699, -0.0160435, -0.00296628, -0.00925513, -0.0646268, 0.0104772, -0.126962
846.32653870900003312, -0.0158025, -0.00298026, -0.00938331, -0.0610321, 0.00261645, -0.116859
846.35985507600003075, -0.015765, -0.0029178, -0.00932899, -0.0591599, -0.000497238, -0.111613
846.39317140900004688, -0.0161854, -0.00297515, -0.00905309, -0.0568406, -0.0063864, -0.106107
846.42648771400001806, -0.0168644, -0.00296631, -0.00863469, -0.054506, -0.0130322, -0.10127
846.45980407599995488, -0.0174645, -0.00283507, -0.00823687, -0.0528034, -0.0186185, -0.0973906
846.49312037599997893, -0.0176425, -0.00270115, -0.00820283, -0.0514708, -0.0230136, -0.093962
846.52643670899999506, -0.0183336, -0.00269349, -0.00806318, -0.05202, -0.0215166, -0.0969087
846.55975307100004557, -0.0188259, -0.00281749, -0.00805476, -0.0528796, -0.0183712, -0.0997309
846.59306940900000882, -0.0190403, -0.00308339, -0.00797824, -0.0524717, -0.01974, -0.100213
846.62653570899999522, -0.0193525, -0.00327176, -0.00784014, -0.0512516, -0.0242228, -0.0982342
846.65985204200001135, -0.0191915, -0.00337417, -0.0079805, -0.0524678, -0.0221938, -0.103189
846.69316840900000898, -0.0192369, -0.00369226, -0.00804081, -0.0546569, -0.0150245, -0.110448
846.72648474200002511, -0.0193486, -0.00396862, -0.00792835, -0.0562807, -0.00921134, -0.118239
846.75980104200004916, -0.0194981, -0.00431552, -0.00780866, -0.0567966, -0.00544415, -0.12179
846.79311734700002035, -0.0195626, -0.00455627, -0.00778537, -0.058025, -0.00089341, -0.127576
846.82643374200006292, -0.0195623, -0.00464936, -0.0077428, -0.0597606, 0.007307, -0.133844
846.85975007599995479, -0.0193571, -0.00508268, -0.00806449, -0.0673152, 0.0409613, -0.15256
846.89306640400002379, -0.0195179, -0.00523973, -0.0080447, -0.0682726, 0.0490055, -0.154883
846.92638274199998705, -0.0195262, -0.00532109, -0.00801698, -0.0682927, 0.0582394, -0.151431
846.95984907599995495, -0.0194349, -0.00526246, -0.00804646, -0.0679921, 0.0678568, -0.147032
846.99316537599997901, -0.0192701, -0.00524056, -0.00809518, -0.0662369, 0.074546, -0.136732
847.02648170899999513, -0.0188359, -0.00498312, -0.00816665, -0.0640691, 0.0793764, -0.125093
847.05979804200001126, -0.0187297, -0.0047517, -0.00803909, -0.0657396, 0.078023, -0.131561
847.09311437999997452, -0.0186641, -0.00432206, -0.00770502, -0.0672768, 0.0771358, -0.137862
847.12643071399998007, -0.0186181, -0.00397761, -0.00755768, -0.0679333, 0.0783602, -0.139928
847.15974704200004908, -0.0185279, -0.0038256, -0.00756643, -0.0688576, 0.0786822, -0.142714
847.19306338000001233, -0.0185591, -0.00387209, -0.00767605, -0.0697263, 0.0779875, -0.145059
847.22637970899995707, -0.0185139, -0.00387417, -0.00779571, -0.0698297, 0.0782759, -0.145049
847.2596960759999547, -0.0186786, -0.00387361, -0.00784417, -0.0695767, 0.0795502, -0.144393
847.29316237600005479, -0.0190329, -0.00400902, -0.00765427, -0.0700249, 0.0794922, -0.146304
847.32647870899995723, -0.0188487, -0.00426277, -0.00780554, -0.0702683, 0.0788168, -0.147433
847.35979507499996544, -0.018372, -0.00451223, -0.00811545, -0.0695826, 0.080501, -0.14688
847.39311137499998949, -0.0185534, -0.00442381, -0.00790288, -0.0688339, 0.0845037, -0.143204
847.42642771400005586, -0.0182066, -0.00425283, -0.00794188, -0.0680822, 0.0887556, -0.143737
847.45974407500000325, -0.017656, -0.00406446, -0.00808579, -0.0678484, 0.0905545, -0.146157
847.49306037500002731, -0.017436, -0.00396351, -0.00818306, -0.0671382, 0.0903929, -0.150622
847.52637674200002493, -0.0170652, -0.00409212, -0.0084898, -0.0666999, 0.0865316, -0.154253
847.55969304699999611, -0.0167403, -0.00416627, -0.00873464, -0.0663369, 0.0812966, -0.159402
847.59300937500006512, -0.0166395, -0.00402502, -0.00878701, -0.0657563, 0.0791425, -0.164652
847.62632574200006275, -0.0164802, -0.00405121, -0.00891711, -0.0657901, 0.0756504, -0.171913
847.65979207500004122, -0.0162173, -0.00414952, -0.00909179, -0.0655516, 0.069111, -0.184722
847.6931083800000124, -0.0161893, -0.00406565, -0.00911569, -0.064794, 0.0692406, -0.188239
847.72642471400001796, -0.0159828, -0.00383756, -0.00918867, -0.0640804, 0.071152, -0.192074
847.75974107499996535, -0.0159718, -0.0036819, -0.00923333, -0.0632753, 0.0736361, -0.185126
847.79305738000005022, -0.0158322, -0.00373431, -0.00914269, -0.0638434, 0.0768898, -0.18183
847.82637374199998703, -0.0156071, -0.00377692, -0.00924718, -0.0642204, 0.0789486, -0.186483
847.85969007500000316, -0.0154608, -0.0038497, -0.00932929, -0.063666, 0.0701782, -0.19509
847.89300700399996913, -0.0153522, -0.003878, -0.00948064, -0.0635841, 0.0635072, -0.206055
847.92632270900003277, -0.015342, -0.0040284, -0.00946234, -0.0627921, 0.0521653, -0.217995
847.9596390420000489, -0.0152617, -0.0039232, -0.00948301, -0.0623579, 0.0470153, -0.225391
847.99310541800002738, -0.0150179, -0.00384176, -0.00955019, -0.0618712, 0.0440612, -0.233928
848.02642170900003293, -0.0149189, -0.00387735, -0.00948457, -0.0618229, 0.0442268, -0.234909
848.05973804200004906, -0.0145871, -0.00417838, -0.00956412, -0.0627221, 0.0559829, -0.230181
848.09305434700002024, -0.0144616, -0.00431447, -0.00958275, -0.0631375, 0.0634956, -0.228843
848.12637073700000201, -0.0143513, -0.00454462, -0.00974526, -0.0624211, 0.0609907, -0.22893
848.159687047000034, -0.0140524, -0.00450777, -0.00990207, -0.06086, 0.0533585, -0.228139
848.19300338000005013, -0.0139684, -0.00416811, -0.00977767, -0.058962, 0.0447131, -0.226269
848.22631971300006626, -0.0140173, -0.00397993, -0.00965168, -0.0577598, 0.039454, -0.224529
848.25963601800003744, -0.0140465, -0.00387607, -0.00957586, -0.0587628, 0.045089, -0.226984
848.29295240900000863, -0.0144347, -0.00390093, -0.00935978, -0.0595334, 0.0480371, -0.230785
848.32626874200002476, -0.0148857, -0.00384217, -0.00919393, -0.0604052, 0.0519797, -0.234209
848.35973507500000323, -0.0151735, -0.00377858, -0.00906037, -0.0615545, 0.055968, -0.239491
848.39305137500002729, -0.0154057, -0.00382049, -0.00886841, -0.0632363, 0.0609539, -0.248153
848.42636771299999054, -0.0158595, -0.00398002, -0.00856792, -0.0637217, 0.0614278, -0.252035
848.4596840469999961, -0.0164333, -0.00450727, -0.00830986, -0.0656168, 0.0687374, -0.260801
848.49300038000001223, -0.0165436, -0.00506299, -0.0083716, -0.0680083, 0.0762845, -0.273428
848.52631674200006273, -0.0165654, -0.00557115, -0.00844176, -0.0691253, 0.0798496, -0.280708
848.55963307499996517, -0.0165955, -0.00612766, -0.00858109, -0.0691591, 0.0831645, -0.280283
848.59294940899997073, -0.0165167, -0.00652966, -0.00872651, -0.0692106, 0.0855184, -0.280218
848.62626570899999479, -0.0166738, -0.00686417, -0.00871263, -0.0703587, 0.0831986, -0.288432
848.65958207500000299, -0.0164559, -0.00704527, -0.0087964, -0.0710078, 0.0802518, -0.29312
848.69304837499998939, -0.016274, -0.00708814, -0.00883352, -0.0711567, 0.0784525, -0.295054
848.72636474199998702, -0.0161854, -0.0070561, -0.0088559, -0.0726437, 0.0793462, -0.305909
848.75968108000006396, -0.0160965, -0.00695714, -0.00889617, -0.0710369, 0.0790526, -0.293952
848.7929974090000087, -0.016156, -0.00691915, -0.00892711, -0.0693406, 0.0814666, -0.280397
848.82631374200002483, -0.0161437, -0.00719641, -0.00892762, -0.0688857, 0.0857054, -0.275548
848.85963007500004096, -0.0160591, -0.00748082, -0.00898579, -0.0676403, 0.0938609, -0.262663
848.89294637500006502, -0.0161288, -0.00766781, -0.00897474, -0.0658921, 0.100259, -0.247348
848.92626271300002827, -0.0161755, -0.00791435, -0.0090283, -0.0629812, 0.108752, -0.222499
848.95957904700003382, -0.0161947, -0.00804112, -0.00906314, -0.0610575, 0.116939, -0.205392
848.99289538000004995, -0.0164675, -0.00800643, -0.00897803, -0.0606876, 0.121319, -0.200827
849.02621174199998677, -0.0166731, -0.00800728, -0.00894732, -0.0602272, 0.126157, -0.195507
849.05967804199997317, -0.0166267, -0.00793839, -0.0090172, -0.0592953, 0.130498, -0.18736
849.0929944089999708, -0.016714, -0.00796582, -0.00912873, -0.0591589, 0.133076, -0.184824
849.12631074199998693, -0.0168671, -0.00800539, -0.0091328, -0.0584422, 0.137332, -0.178743
849.15962707500000306, -0.0168268, -0.00797471, -0.00918738, -0.0566004, 0.1439, -0.16583
849.19294340900000861, -0.016667, -0.00797021, -0.0092922, -0.0541355, 0.151443, -0.149995
849.22625974200002474, -0.0164998, -0.00813251, -0.00931436, -0.0530829, 0.154074, -0.144102
849.25957607500004087, -0.0164429, -0.00817324, -0.00927426, -0.0520052, 0.156377, -0.138936
849.29289240900004643, -0.0163983, -0.00829511, -0.00925539, -0.0509309, 0.158521, -0.134037
849.3262087089999568, -0.0162608, -0.00845728, -0.00922288, -0.0496159, 0.160766, -0.128491
849.35952504700003374, -0.0161767, -0.00868778, -0.00927716, -0.048977, 0.16116, -0.126775
849.39299140900004659, -0.0161523, -0.0088884, -0.00932263, -0.0483186, 0.161486, -0.125196
849.42630770899995696, -0.0161575, -0.00900395, -0.00935639, -0.0472269, 0.162301, -0.122264
849.45962407499996516, -0.0163004, -0.00891919, -0.00930699, -0.0464175, 0.16283, -0.120709
849.49294037499998922, -0.0162748, -0.00893453, -0.00935253, -0.0458768, 0.162442, -0.120798
849.52625674199998684, -0.01621, -0.00893225, -0.00935872, -0.045251, 0.163348, -0.119396
849.55957304699995802, -0.0162249, -0.00883876, -0.00934151, -0.0440355, 0.164119, -0.117343
849.5928894080000191, -0.0161135, -0.00869696, -0.00932423, -0.0438905, 0.163252, -0.117042
849.62620573699996385, -0.0160634, -0.00877518, -0.00929968, -0.0444619, 0.163207, -0.118678
849.65952204200004871, -0.0159802, -0.00872724, -0.00933398, -0.0443357, 0.162068, -0.119198
849.69283837000000403, -0.0159502, -0.00859779, -0.00937878, -0.0435473, 0.159671, -0.118884
849.72615474200006247, -0.0159414, -0.00846635, -0.00941364, -0.0430735, 0.157828, -0.11866
849.75962107500004095, -0.0159022, -0.00854925, -0.00953953, -0.0423742, 0.154556, -0.11974
849.792937375000065, -0.0158746, -0.00860306, -0.00957671, -0.0416996, 0.15277, -0.118684
849.82625370799996745, -0.0158942, -0.00854801, -0.00951847, -0.0413607, 0.154595, -0.116262
849.85957007499996507, -0.0158051, -0.00846741, -0.00944513, -0.0418626, 0.162398, -0.114201
849.89288638000004994, -0.0157779, -0.00856377, -0.00946984, -0.0419374, 0.164106, -0.113798
849.92620270800000526, -0.0157017, -0.00878609, -0.00954788, -0.0417104, 0.162381, -0.113535
849.95951907500000289, -0.015633, -0.00899494, -0.00963123, -0.0413704, 0.163304, -0.110441
849.99283537999997407, -0.0156478, -0.00904844, -0.00965417, -0.0409272, 0.163915, -0.107181
850.02615171800005101, -0.015635, -0.00898464, -0.00963028, -0.041009, 0.167981, -0.105463
850.05946801300001425, -0.0155513, -0.00878415, -0.00956718, -0.0421571, 0.177052, -0.108322
850.09293440800001918, -0.0154754, -0.00862026, -0.00948015, -0.0421145, 0.183918, -0.103906
850.12625067999999828, -0.0154916, -0.00859031, -0.00941147, -0.0417515, 0.186642, -0.0994979
850.15956707500004086, -0.0154695, -0.00854656, -0.00935578, -0.0410925, 0.187931, -0.0934334
850.19288338000001204, -0.0155392, -0.00860082, -0.00930052, -0.0393605, 0.183439, -0.082026
850.22619968499998322, -0.0157703, -0.00877103, -0.00917703, -0.0376555, 0.179494, -0.0706575
850.25951607499996499, -0.0159018, -0.00888363, -0.00914147, -0.0378798, 0.179405, -0.0726319
850.29283240799998111, -0.016086, -0.00895656, -0.00906056, -0.0381713, 0.179364, -0.0752839
850.32614875100000518, -0.0162667, -0.00900372, -0.0089524, -0.0378473, 0.178731, -0.0732699
850.35946504200001073, -0.0163891, -0.00898854, -0.00888311, -0.0372293, 0.178133, -0.0684974
850.39278137500002686, -0.0164612, -0.00899799, -0.00881689, -0.0363337, 0.177606, -0.0613234
850.42624767999996038, -0.0166558, -0.0089459, -0.0086875, -0.0353424, 0.176264, -0.0544971
850.45956404599996858, -0.0169015, -0.00899928, -0.00856031, -0.03435, 0.175756, -0.0471927
850.49288039400005346, -0.0171514, -0.00908502, -0.00843578, -0.0341653, 0.174223, -0.0474174
850.52619670800004315, -0.0173472, -0.00928012, -0.00839127, -0.0354973, 0.174809, -0.0590796
850.55951307500004077, -0.0175546, -0.00942912, -0.00829267, -0.0348967, 0.176947, -0.053072
850.5928294080000569, -0.0175627, -0.00965105, -0.00835909, -0.0334349, 0.18148, -0.0377234
850.62614574200006246, -0.0176465, -0.00969626, -0.00838254, -0.0327913, 0.182562, -0.0312366
850.6594620749999649, -0.0177419, -0.00973689, -0.00842184, -0.0317754, 0.186991, -0.019532
850.69277837499998896, -0.0178283, -0.00984334, -0.00845509, -0.0306696, 0.195709, -0.00547266
850.72609474199998658, -0.0177854, -0.00992581, -0.0085505, -0.0298822, 0.206973, 0.00745548
850.75941104200001064, -0.0177425, -0.00991534, -0.00865182, -0.0295588, 0.213903, 0.01372
850.79287740799998119, -0.0178395, -0.00974434, -0.00862039, -0.0288914, 0.22024, 0.0220095
850.82619371300006605, -0.0180858, -0.00967613, -0.00853142, -0.0274392, 0.232341, 0.03971
850.8595100420000108, -0.0181826, -0.00957476, -0.00844558, -0.0264272, 0.241398, 0.0521304
850.89282634599999255, -0.0182417, -0.00953876, -0.00840476, -0.025749, 0.247105, 0.0600567
850.92614271299999018, -0.0181455, -0.00938464, -0.00839464, -0.0260062, 0.250767, 0.0597423
850.95945904600000631, -0.017976, -0.00896723, -0.00832767, -0.0259052, 0.253757, 0.0616601
850.99277719400004116, -0.0181059, -0.0089004, -0.00822113, -0.0252204, 0.257625, 0.0682362
851.02609170799996718, -0.0181521, -0.00886871, -0.00812085, -0.0246627, 0.261497, 0.0739285
851.05940807499996481, -0.0181014, -0.0086095, -0.00804665, -0.0240764, 0.264122, 0.0792221
851.09272440799998094, -0.0180955, -0.00851839, -0.00798436, -0.0232077, 0.268105, 0.08677
851.12619074200006253, -0.0180376, -0.00843443, -0.00792475, -0.0225485, 0.270871, 0.0919701
851.15950707499996497, -0.0179776, -0.00847677, -0.00795846, -0.0221024, 0.272861, 0.0955873
851.19282338000004984, -0.0179465, -0.00843823, -0.00785066, -0.0220025, 0.273861, 0.0962307
851.22613974199998665, -0.0179648, -0.00850638, -0.00773193, -0.022, 0.274396, 0.096263
851.25945603700006359, -0.0179072, -0.00856556, -0.00765618, -0.0219975, 0.274762, 0.0959062
851.29277240800001891, -0.0177949, -0.00868752, -0.00762664, -0.0217126, 0.275591, 0.0969755
851.32608874200002447, -0.0176468, -0.00864534, -0.0075837, -0.0214405, 0.276595, 0.0979402
851.3594050750000406, -0.0174002, -0.00852842, -0.00755682, -0.0214873, 0.277216, 0.0979023
851.39272140800005673, -0.0173752, -0.00858728, -0.00754236, -0.0214947, 0.277214, 0.097791
851.4260377079999671, -0.0173197, -0.0086284, -0.00754231, -0.021394, 0.27648, 0.0978767
851.45935404600004404, -0.0170675, -0.00860643, -0.00758118, -0.0213674, 0.274226, 0.0962998
851.49282040800005689, -0.0168199, -0.008655, -0.00773356, -0.0210289, 0.272039, 0.0956889
851.52613671300002807, -0.0166374, -0.00866525, -0.00791742, -0.0205237, 0.268369, 0.094887
851.55945304199997281, -0.0164091, -0.00859511, -0.00811477, -0.0199518, 0.264761, 0.0929176
851.59276937499998894, -0.0163621, -0.00861341, -0.00817387, -0.0197767, 0.262523, 0.0916196
851.62608571300006588, -0.0162542, -0.00865459, -0.00826585, -0.0193303, 0.258073, 0.0899509
851.65940204200001062, -0.0161989, -0.00874501, -0.00834716, -0.0188233, 0.25301, 0.0874942
851.69271840800001883, -0.0161473, -0.00877798, -0.00843312, -0.0183379, 0.252042, 0.0869122
851.72603474200002438, -0.0160649, -0.00873961, -0.00846604, -0.0180851, 0.25253, 0.0868329
851.75935107500004051, -0.0159832, -0.00868397, -0.00841647, -0.0182604, 0.256791, 0.0872156
851.79266738000001169, -0.0158901, -0.00872978, -0.00841416, -0.0178277, 0.25737, 0.0884086
851.82613374599998224, -0.0158477, -0.00880237, -0.00845792, -0.0175677, 0.255316, 0.0884907
851.85945005600001423, -0.0157697, -0.00876908, -0.00849154, -0.0173975, 0.256873, 0.0895573
851.8927664080000568, -0.0157211, -0.00878911, -0.00851963, -0.0170501, 0.257436, 0.0912304
851.92608270799996717, -0.0156472, -0.0088098, -0.00853694, -0.0165189, 0.257834, 0.0942391
851.95939904600004411, -0.015551, -0.00877805, -0.00853132, -0.0164394, 0.262112, 0.0965959
851.99271538000004966, -0.0155179, -0.00873574, -0.0085186, -0.0167092, 0.268691, 0.0979552
852.02603174099999706, -0.0155634, -0.00871659, -0.00842852, -0.0162793, 0.268304, 0.100288
852.05934804100002111, -0.0156095, -0.0087552, -0.00841155, -0.0159921, 0.267303, 0.101811
852.09266437500002667, -0.0158705, -0.00884999, -0.00833761, -0.0159968, 0.269912, 0.102785
852.1259807080000428, -0.016174, -0.00892127, -0.0081839, -0.0159783, 0.271286, 0.103402
852.15929704100005893, -0.0163043, -0.00882046, -0.00804645, -0.0153099, 0.269815, 0.108452
852.19276337500002683, -0.0164426, -0.00883988, -0.00795243, -0.0150224, 0.268781, 0.110194
852.22607974100003503, -0.0166314, -0.00874165, -0.00778047, -0.0147031, 0.267535, 0.112274
852.25939604600000621, -0.0168443, -0.00867991, -0.00766647, -0.0145562, 0.266695, 0.11274
852.29271240800005671, -0.0169792, -0.00870958, -0.00759047, -0.0142066, 0.265734, 0.115419
852.32602870799996708, -0.0170396, -0.00874868, -0.00753817, -0.014261, 0.267393, 0.114858
852.35934501799999907, -0.0172678, -0.00887057, -0.0074495, -0.0143964, 0.268062, 0.112534
852.39266140799998084, -0.0173239, -0.00889766, -0.00736172, -0.0145118, 0.267693, 0.109906
852.42597774099999697, -0.0173326, -0.00897842, -0.00731215, -0.0144053, 0.268918, 0.110467
852.45929407500000252, -0.0171947, -0.00907811, -0.00737989, -0.0151205, 0.273887, 0.103914
852.49261037500002658, -0.0171749, -0.00903033, -0.00736063, -0.0159247, 0.274817, 0.0946008
852.52607670800000506, -0.017227, -0.00904972, -0.00730933, -0.0154607, 0.27475, 0.0991113
852.55939305100002912, -0.0171888, -0.00910947, -0.00733292, -0.0141487, 0.276024, 0.114658
852.59270937899998444, -0.0171269, -0.00932156, -0.00743584, -0.0130686, 0.280377, 0.129504
852.62602574100003494, -0.0171939, -0.00961399, -0.00755139, -0.0128338, 0.283484, 0.134231
852.65934201799996117, -0.0171667, -0.00980604, -0.00767179, -0.0126966, 0.285947, 0.137224
852.69265840800005662, -0.0169893, -0.00975453, -0.00775999, -0.012569, 0.287701, 0.140072
852.72597487899997759, -0.0170119, -0.0098208, -0.00780742, -0.0123642, 0.289812, 0.143644
852.75929107499996462, -0.0169461, -0.00993897, -0.00783889, -0.0118715, 0.295214, 0.151574
852.79260796500000197, -0.0168736, -0.00990692, -0.00787398, -0.011553, 0.299133, 0.156917
852.82592373700003918, -0.016886, -0.00993292, -0.0078634, -0.0112176, 0.303568, 0.162351
852.85924004599996806, -0.0169528, -0.00989302, -0.00791562, -0.0108944, 0.308862, 0.167986
852.89270637499998884, -0.0169802, -0.00982296, -0.00793314, -0.0107982, 0.312444, 0.170692
852.92602270800000497, -0.0169544, -0.00962697, -0.00787992, -0.0107135, 0.31669, 0.17323
852.95933944099999735, -0.0169012, -0.00946125, -0.00775472, -0.010648, 0.319962, 0.174501
852.99265537899998435, -0.016801, -0.00936872, -0.00763637, -0.0106274, 0.321993, 0.1748
853.02597174100003485, -0.0167133, -0.00931498, -0.00752716, -0.0105134, 0.32389, 0.175006
853.05928804100005891, -0.016657, -0.00933798, -0.00733822, -0.0104991, 0.324735, 0.174549
853.09260437900002216, -0.0165376, -0.00933399, -0.00734937, -0.0105016, 0.32478, 0.174783
853.12592070799996691, -0.0164117, -0.00944677, -0.00736208, -0.0103988, 0.325611, 0.175463
853.15923704600004385, -0.0163812, -0.0094923, -0.00728637, -0.010398, 0.325428, 0.175705
853.19255337499998859, -0.0162078, -0.00960525, -0.0073102, -0.0102112, 0.327001, 0.175297
853.22601971300002788, -0.0161571, -0.00961757, -0.00731791, -0.00997022, 0.328395, 0.174389
853.25933607499996469, -0.016032, -0.00965395, -0.00735742, -0.00974828, 0.330016, 0.173667
853.29265235100001519, -0.0160478, -0.00965253, -0.00735019, -0.00968994, 0.331626, 0.174277
853.32596870800000488, -0.0160448, -0.00963986, -0.00733758, -0.00967277, 0.332955, 0.174042
853.35928504100002101, -0.0159968, -0.00959646, -0.00732592, -0.00957364, 0.3329, 0.172354
853.39260137899998426, -0.0159261, -0.00960965, -0.00734541, -0.00932037, 0.331661, 0.171341
853.42591770800004269, -0.015965, -0.00960986, -0.00737146, -0.00889595, 0.328896, 0.168106
853.45923404600000595, -0.015919, -0.00959509, -0.00742437, -0.00873606, 0.328156, 0.166007
853.49255037900002208, -0.0158607, -0.00953212, -0.00740233, -0.00863685, 0.328312, 0.164839
853.52586674099995889, -0.0157924, -0.00948919, -0.00737227, -0.00857181, 0.329127, 0.163049
853.55918307499996445, -0.0156842, -0.00944038, -0.00730372, -0.00871641, 0.332188, 0.163192
853.59264940800005661, -0.0156067, -0.009402, -0.00718134, -0.00907075, 0.337498, 0.165144
853.62596571300002779, -0.0155809, -0.00936265, -0.00715443, -0.00918367, 0.339096, 0.165191
853.65928204600004392, -0.0155525, -0.00933785, -0.00711206, -0.00954272, 0.345466, 0.168308
853.69259837900006005, -0.0155056, -0.00932849, -0.00711607, -0.00993063, 0.352139, 0.172044
853.72591467899997042, -0.0154492, -0.00923215, -0.00709715, -0.0100273, 0.356887, 0.172852
853.75923107500000242, -0.015552, -0.00921379, -0.00701987, -0.00981682, 0.354969, 0.171503
853.79254740800001855, -0.0157552, -0.00930231, -0.00700551, -0.00955752, 0.352503, 0.169627
853.82586374100003468, -0.0157775, -0.00935227, -0.00701636, -0.00918014, 0.344558, 0.165758
853.85918007500004023, -0.0157309, -0.00936797, -0.00702719, -0.00886522, 0.337703, 0.162545
853.89249640800005636, -0.0156323, -0.00936586, -0.00706604, -0.00857623, 0.332093, 0.159684
853.92596270800004277, -0.0155684, -0.00936633, -0.00708268, -0.00842523, 0.329923, 0.158283
853.95927925099999811, -0.0156345, -0.00935818, -0.00703137, -0.00760716, 0.313373, 0.149279
853.99259608900001695, -0.0157529, -0.00937227, -0.00699677, -0.00737309, 0.309048, 0.146557
854.02591174099995897, -0.0158255, -0.00944741, -0.00696317, -0.00763109, 0.314429, 0.149214
854.05922807399997509, -0.0158713, -0.00941486, -0.00687957, -0.00720039, 0.30568, 0.144241
854.09254437900005996, -0.0158491, -0.00938478, -0.00686428, -0.00701683, 0.301742, 0.141345
854.12586070800000471, -0.015814, -0.00938253, -0.00682733, -0.00784371, 0.316747, 0.148582
854.15917707400001291, -0.0158296, -0.00937135, -0.00686925, -0.00807291, 0.320993, 0.151842
854.19249337899998409, -0.0158587, -0.00945541, -0.00698187, -0.00855323, 0.329068, 0.155602
854.22580971299998964, -0.0159591, -0.00960449, -0.00690112, -0.00850027, 0.328476, 0.154349
854.25927607400001307, -0.0161043, -0.00980036, -0.00680782, -0.00886422, 0.335602, 0.157358
854.29259237899998425, -0.0160376, -0.00959813, -0.00677836, -0.00766893, 0.313858, 0.148684
854.32590870299998187, -0.016014, -0.00960966, -0.00685612, -0.0072495, 0.306552, 0.145939
854.35922507400005088, -0.0161381, -0.00933945, -0.00679702, -0.00791471, 0.318418, 0.150189
854.39254137399996125, -0.0161593, -0.00908835, -0.00678952, -0.00844446, 0.327645, 0.153407
854.42585770799996681, -0.0160987, -0.00897685, -0.0068566, -0.00915495, 0.339763, 0.157299
854.45917404099998294, -0.0161068, -0.00890611, -0.00687127, -0.00990005, 0.353279, 0.161197
854.49249037900005987, -0.0161367, -0.00890044, -0.00683641, -0.0104095, 0.363495, 0.164001
854.52580674099999669, -0.016105, -0.00884677, -0.00686875, -0.0106738, 0.369254, 0.165701
854.55912307400001282, -0.0161209, -0.00873633, -0.00691062, -0.0109865, 0.376684, 0.167815
854.59243987000002107, -0.0161834, -0.00875236, -0.00697923, -0.0110961, 0.380199, 0.168867
854.62590574099999685, -0.0161859, -0.00884486, -0.00701437, -0.0110083, 0.380332, 0.168878
854.65922207400001298, -0.0161926, -0.0089123, -0.00707397, -0.0107495, 0.376974, 0.167921
854.69253840800001853, -0.0161196, -0.00879901, -0.00717776, -0.0108944, 0.380481, 0.169316
854.72585474100003466, -0.0160978, -0.00871226, -0.00722836, -0.010878, 0.380735, 0.169382
854.75917107400005079, -0.0159427, -0.00856212, -0.00730528, -0.0110061, 0.383707, 0.170133
854.79248740800005635, -0.0157218, -0.00822549, -0.00729887, -0.0111094, 0.386477, 0.170231
854.82580696499996975, -0.0159645, -0.00803149, -0.00715747, -0.0110922, 0.386741, 0.169525
854.85912004600004366, -0.0161843, -0.00799534, -0.00706881, -0.0106529, 0.377722, 0.166425
854.89243644600003336, -0.0163975, -0.00814056, -0.00705894, -0.00999311, 0.363692, 0.162229
854.9257527409999966, -0.0164832, -0.0083694, -0.00708848, -0.00951268, 0.353354, 0.159082
854.95921901200006232, -0.0165128, -0.00842083, -0.00709557, -0.00931525, 0.348766, 0.157503
854.99253539300002558, -0.0163751, -0.0083588, -0.00712976, -0.00948989, 0.352254, 0.159192
855.02584826400004658, -0.0161953, -0.00829176, -0.00714186, -0.00949348, 0.351887, 0.159205
855.05915792700000111, -0.0161578, -0.00823047, -0.00712326, -0.00939513, 0.349021, 0.157997
855.09246803500002443, -0.0161625, -0.00811958, -0.00710115, -0.00894503, 0.338041, 0.153285
855.12577743300005295, -0.0162901, -0.00812927, -0.00695531, -0.00842136, 0.324823, 0.146987
855.15908723699999427, -0.0162245, -0.00821029, -0.00690439, -0.008298, 0.321635, 0.145378
855.1923970069999541, -0.0162518, -0.00820555, -0.00688318, -0.00829662, 0.321647, 0.145383
855.22570677700002761, -0.0162851, -0.00835512, -0.00684303, -0.00880843, 0.337644, 0.153063
855.25901651300000594, -0.0162632, -0.00842806, -0.00677616, -0.00940481, 0.356172, 0.161753
855.2924762869999995, -0.0161996, -0.00846064, -0.00671018, -0.00943876, 0.357182, 0.161982
855.32578605699995933, -0.0161625, -0.0085239, -0.0067224, -0.00881781, 0.338092, 0.152617
855.35909579400004077, -0.0161208, -0.00855295, -0.00675301, -0.00842156, 0.326549, 0.146636
855.39240934899999047, -0.0160909, -0.00852244, -0.00679447, -0.00829461, 0.323191, 0.144824
855.42571536700006618, -0.0162196, -0.00853158, -0.00667138, -0.00877108, 0.334276, 0.151205
855.45902513700002601, -0.0162296, -0.0085007, -0.00664688, -0.00900863, 0.339579, 0.1544
855.49233490699998583, -0.0161803, -0.00847857, -0.00664784, -0.00906452, 0.340878, 0.155522
855.5256446490000144, -0.0161521, -0.00850788, -0.00671606, -0.00926962, 0.343757, 0.15671
855.55895444700001917, -0.0159482, -0.00852363, -0.00680563, -0.00895169, 0.338184, 0.152961
855.59226418900004774, -0.0158432, -0.00848996, -0.00683033, -0.00869978, 0.334228, 0.150225
855.62557395400006044, -0.0158332, -0.00849792, -0.00684992, -0.00845326, 0.329969, 0.147082
855.659033728000054, -0.0157771, -0.00852255, -0.00686428, -0.00824022, 0.327464, 0.145581
855.69234344100004819, -0.0157554, -0.00854151, -0.0068298, -0.00830856, 0.327455, 0.144672
855.72565326799997365, -0.0156165, -0.00853661, -0.00680461, -0.00853435, 0.330221, 0.145166
855.75896300900001279, -0.0154825, -0.00865147, -0.0068426, -0.00889388, 0.334966, 0.147956
855.79227275100004135, -0.0153558, -0.00869827, -0.00690042, -0.00912962, 0.339075, 0.149889
855.82558254499997474, -0.0152693, -0.00859606, -0.0068658, -0.00905102, 0.3389, 0.14983
855.85889234800004033, -0.0151231, -0.00857498, -0.00688919, -0.0084358, 0.329192, 0.146901
855.89220208899996578, -0.0151378, -0.00863875, -0.00694163, -0.00794307, 0.319922, 0.143441
855.92551185499996791, -0.0151552, -0.00863288, -0.00695896, -0.00810432, 0.323238, 0.144172
855.95882161999998061, -0.0150542, -0.00861794, -0.00700009, -0.00826324, 0.328112, 0.145374
855.99228222199997163, -0.0149662, -0.00863754, -0.0070601, -0.00880021, 0.34028, 0.149161
856.02559519099997942, -0.0151006, -0.00873986, -0.00706257, -0.00921815, 0.351046, 0.152629
856.05891166499998235, -0.0150431, -0.00872018, -0.00705659, -0.00947616, 0.358041, 0.154688
856.0922279989999879, -0.015046, -0.00888266, -0.00708542, -0.00956317, 0.361633, 0.155912
856.12554433200000403, -0.0152857, -0.00881923, -0.0069793, -0.00939066, 0.357229, 0.153599
856.15886066500002016, -0.0152066, -0.00887564, -0.00696783, -0.00938026, 0.35699, 0.153041
856.19217696999999134, -0.0151884, -0.0088755, -0.00697338, -0.00961021, 0.364381, 0.156015
856.22549333200004185, -0.0151987, -0.00887206, -0.00699815, -0.00937234, 0.355956, 0.152537
856.25880966500005798, -0.0151855, -0.00886978, -0.00699346, -0.00882381, 0.33553, 0.14291
856.29212596499996835, -0.0153554, -0.0090559, -0.00703497, -0.00900118, 0.34363, 0.147871
856.32544230300004529, -0.0156979, -0.00919359, -0.00696533, -0.00932525, 0.356157, 0.154196
856.35890866500005814, -0.0160157, -0.0093414, -0.00689229, -0.00928535, 0.354132, 0.152845
856.39222496499996851, -0.016185, -0.00967845, -0.00685725, -0.00933253, 0.357587, 0.155297
856.42554129799998464, -0.0164269, -0.0101433, -0.00683792, -0.00929149, 0.357152, 0.155649
856.458857637000051, -0.0164994, -0.010202, -0.00680431, -0.0094126, 0.364419, 0.160818
856.49217399799999839, -0.0163781, -0.0102411, -0.00692078, -0.00933939, 0.359299, 0.156386
856.52549030299996957, -0.0163187, -0.0103195, -0.00699132, -0.00927358, 0.355519, 0.153515
856.55880666500002008, -0.0163647, -0.00989658, -0.00698796, -0.00948675, 0.372292, 0.167655
856.5921229980000362, -0.0164199, -0.00999131, -0.00695112, -0.00947992, 0.368778, 0.164064
856.62543933200004176, -0.0164699, -0.010089, -0.00694388, -0.00945822, 0.36536, 0.159425
856.65875566500005789, -0.0163643, -0.010024, -0.00683167, -0.00958739, 0.373035, 0.162706
856.69207197499997619, -0.0161297, -0.0100292, -0.00685531, -0.0096347, 0.37405, 0.161914
856.7255382749999626, -0.0161932, -0.0102305, -0.00683702, -0.0095342, 0.366667, 0.155056
856.75885463200006598, -0.0162387, -0.0104559, -0.00692019, -0.00942401, 0.359043, 0.147532
856.79217096499996842, -0.0161793, -0.0105573, -0.00697877, -0.00941219, 0.359065, 0.147475
856.82548733199996605, -0.0161584, -0.0104083, -0.00694278, -0.00949347, 0.36852, 0.158688
856.85880366499998217, -0.0160971, -0.0102054, -0.00694191, -0.00959484, 0.376934, 0.168043
856.89211994100003267, -0.0160657, -0.0101834, -0.00689181, -0.00961701, 0.378277, 0.168767
856.9254363170000488, -0.0158806, -0.0101213, -0.00689553, -0.00973279, 0.387901, 0.17802
856.95875266999996711, -0.0159127, -0.0100706, -0.00690634, -0.00978412, 0.392278, 0.182272
856.99206896999999117, -0.0158965, -0.0100803, -0.00690362, -0.00979013, 0.392601, 0.182636
857.02538533200004167, -0.0157997, -0.00988313, -0.00698362, -0.00989824, 0.399306, 0.188719
857.05885163200002808, -0.0159106, -0.00976492, -0.00695667, -0.00997808, 0.403336, 0.192124
857.09216799399996489, -0.0160915, -0.00964978, -0.00682868, -0.0100053, 0.404309, 0.192604
857.12548433200004183, -0.0161126, -0.00952195, -0.00674332, -0.0100705, 0.407018, 0.194109
857.15880066500005796, -0.0160088, -0.00937662, -0.00669247, -0.010151, 0.410441, 0.195946
857.19211697000002914, -0.0158152, -0.00924744, -0.0066447, -0.0102165, 0.413095, 0.197181
857.22543329799998446, -0.0156532, -0.00908092, -0.0065608, -0.0103375, 0.418244, 0.199884
857.25874966499998209, -0.0153716, -0.00884382, -0.00649497, -0.010494, 0.424816, 0.203444
857.29206597000006695, -0.0151647, -0.00849005, -0.00639832, -0.0107101, 0.433632, 0.208352
857.32538227500003813, -0.0149459, -0.00808107, -0.00625335, -0.0108182, 0.436788, 0.209204
857.3586986650000199, -0.014723, -0.00765465, -0.00611248, -0.0108873, 0.438114, 0.208872
857.39216497000006711, -0.0145213, -0.00737306, -0.00599669, -0.0108721, 0.435704, 0.206247
857.42548127500003829, -0.0142061, -0.00708347, -0.00589765, -0.0108675, 0.433798, 0.203923
857.45879763200002799, -0.0138107, -0.00685883, -0.00582451, -0.010861, 0.432056, 0.201804
857.49211396500004412, -0.0134171, -0.00651041, -0.00570142, -0.0109378, 0.434376, 0.202208
857.52543030799995449, -0.0129686, -0.00615484, -0.00557361, -0.0110027, 0.435886, 0.201945
857.55874666500005787, -0.0124539, -0.00583012, -0.00545048, -0.0110616, 0.437188, 0.201535
857.59206296499996824, -0.01191, -0.00557247, -0.00531552, -0.0110989, 0.437251, 0.200107
857.62537930300004518, -0.0113673, -0.00526626, -0.00516527, -0.0111743, 0.439369, 0.200169
857.658695664999982, -0.0109349, -0.0049431, -0.00499284, -0.0112793, 0.443193, 0.201627
857.69201196500000606, -0.0105371, -0.00469181, -0.0048633, -0.0113575, 0.446112, 0.202736
857.72532826999997724, -0.0100413, -0.00447664, -0.00473803, -0.0113958, 0.446966, 0.202274
857.75879466499998216, -0.00964422, -0.00428402, -0.00457989, -0.0114504, 0.447825, 0.201439
857.79211099799999829, -0.00921982, -0.00410805, -0.0044408, -0.0114871, 0.448212, 0.200427
857.82542729800002235, -0.00880771, -0.00396374, -0.00428826, -0.0115207, 0.448656, 0.199532
857.8587436320000279, -0.00840122, -0.00384457, -0.00414339, -0.0115539, 0.449178, 0.198726
857.89205996500004403, -0.00803517, -0.00373474, -0.00396872, -0.0116043, 0.450647, 0.19855
857.92537629800006016, -0.00768752, -0.00358962, -0.00378761, -0.011681, 0.453483, 0.199273
857.95869263200006571, -0.00731801, -0.00340348, -0.00376107, -0.0117638, 0.457577, 0.20159
857.99200896499996816, -0.00701288, -0.00325264, -0.00368926, -0.0118171, 0.45974, 0.202419
858.02532529799998429, -0.006716, -0.00316182, -0.00361402, -0.0118194, 0.459027, 0.201235
858.05864163199998984, -0.00643655, -0.00307888, -0.00354605, -0.0118339, 0.459049, 0.200602
858.0921080030000212, -0.00614089, -0.00300083, -0.00348296, -0.011862, 0.459938, 0.200619
858.12542433199996594, -0.00584105, -0.00291496, -0.00340997, -0.0119042, 0.461668, 0.20126
858.15874072700000852, -0.00557124, -0.00282434, -0.00331906, -0.0119568, 0.463693, 0.201987
858.1920569979999982, -0.00530753, -0.00272092, -0.00322479, -0.0120146, 0.466084, 0.202985
858.22537330299996938, -0.00507985, -0.00258979, -0.00312392, -0.0120858, 0.469077, 0.204415
858.25868966500001989, -0.0048697, -0.0024923, -0.00304287, -0.0121251, 0.470457, 0.204775
858.29200599800003602, -0.0046792, -0.00241992, -0.00296441, -0.0121411, 0.470652, 0.204341
858.32532229800006007, -0.00452753, -0.00236346, -0.00290075, -0.0121397, 0.469793, 0.203193
858.35863863200006563, -0.00439528, -0.00230291, -0.00287306, -0.0121122, 0.467541, 0.201326
858.39195497000002888, -0.00427934, -0.00223052, -0.00282743, -0.0121208, 0.467309, 0.200764
858.42527130300004501, -0.00416988, -0.00214942, -0.0027761, -0.012158, 0.468924, 0.201467
858.45873766500005786, -0.00405748, -0.0020655, -0.00272333, -0.0121989, 0.470784, 0.202358
858.4920539979999603, -0.00396137, -0.00198457, -0.00268677, -0.0122315, 0.472303, 0.203086
858.52537030300004517, -0.00387019, -0.0019243, -0.0026394, -0.0122466, 0.472688, 0.202998
858.55868663100000049, -0.00378472, -0.00186171, -0.00259567, -0.0122659, 0.473363, 0.203154
858.59200299799999812, -0.00371238, -0.00181835, -0.00255138, -0.0122721, 0.473219, 0.202742
858.62531933100001424, -0.00363982, -0.00178027, -0.00252136, -0.0122749, 0.472927, 0.202296
858.65863563599998542, -0.00356141, -0.00174412, -0.00249017, -0.012285, 0.473197, 0.202253
858.69195196500004386, -0.00349791, -0.00172029, -0.00245366, -0.0122865, 0.472729, 0.201622
858.72526833100005206, -0.00342158, -0.0017095, -0.00242431, -0.0122905, 0.472624, 0.201306
858.75858463600002324, -0.00335821, -0.00169961, -0.00238594, -0.0123064, 0.473509, 0.201766
858.79205099800003609, -0.00329736, -0.00169297, -0.00234759, -0.0123171, 0.473939, 0.201857
858.82536733100005222, -0.00323966, -0.0017001, -0.0023078, -0.0123269, 0.474396, 0.201996
858.85868363099996259, -0.0031875, -0.0016966, -0.00226162, -0.0123462, 0.47562, 0.202729
858.89199999799996021, -0.00312751, -0.00170528, -0.00222497, -0.0123545, 0.476007, 0.202833
858.92531627000005301, -0.00307534, -0.00174555, -0.00218759, -0.0123441, 0.474781, 0.201644
858.95863263600006121, -0.00303473, -0.0017903, -0.002157, -0.0123464, 0.474898, 0.201602
858.99194899799999803, -0.00298562, -0.00182537, -0.0021344, -0.0123569, 0.475947, 0.202357
859.02526527400004852, -0.00294326, -0.00182793, -0.00211355, -0.0123969, 0.479584, 0.205162
859.05858163599998534, -0.00289668, -0.00182268, -0.00208974, -0.0124256, 0.481946, 0.206899
859.09189796500004377, -0.00286467, -0.00183201, -0.0020622, -0.0124285, 0.481939, 0.206753
859.1252142980000599, -0.00285022, -0.00185505, -0.00203971, -0.0124185, 0.480872, 0.205804
859.15868063100003837, -0.00284125, -0.00189305, -0.00201532, -0.0124094, 0.480014, 0.205029
859.191996998000036, -0.00282392, -0.00193564, -0.00198911, -0.0123967, 0.478828, 0.203977
859.22531333100005213, -0.00280637, -0.00197316, -0.00196497, -0.0123981, 0.47894, 0.20398
859.25862963600002331, -0.00281901, -0.00202463, -0.00194167, -0.0123974, 0.478973, 0.203967
859.29194599799996013, -0.00284641, -0.00205922, -0.001931, -0.0124093, 0.480182, 0.204955
859.32526229799998418, -0.00286819, -0.00208716, -0.00192606, -0.0124284, 0.482024, 0.206449
859.35857866499998181, -0.00289415, -0.00210871, -0.00192044, -0.012448, 0.483822, 0.207868
859.3918972170000643, -0.00289644, -0.0021329, -0.00190953, -0.0124658, 0.48532, 0.208958
859.425211298000022, -0.00288611, -0.00216278, -0.00191469, -0.0124732, 0.486251, 0.209722
859.45852763100003813, -0.00287718, -0.00220229, -0.00192226, -0.0124582, 0.485198, 0.208973
859.4919939979999981, -0.00286995, -0.00224577, -0.0019342, -0.0124409, 0.483971, 0.208071
859.52531033100001423, -0.00285671, -0.00228512, -0.00194691, -0.0124374, 0.484095, 0.208248
859.55862663599998541, -0.00284137, -0.00232572, -0.00196149, -0.012433, 0.484134, 0.208318
859.59194299800003591, -0.00282896, -0.0023701, -0.00196508, -0.0124233, 0.483701, 0.20795
859.62525933100005204, -0.00281223, -0.00241733, -0.00197612, -0.0124044, 0.482083, 0.206428
859.65857565999999679, -0.00280324, -0.00245348, -0.00198508, -0.012387, 0.480512, 0.204927
859.69189199799996004, -0.00278818, -0.00248473, -0.00199935, -0.0123858, 0.480858, 0.205388
859.72520830300004491, -0.00277977, -0.00247369, -0.00199214, -0.012415, 0.483301, 0.207718
859.75852461199997379, -0.00277351, -0.002457, -0.00200864, -0.0124523, 0.486274, 0.210576
859.79184096899996348, -0.00276775, -0.00245086, -0.00201697, -0.0124833, 0.488551, 0.21265
859.82515729800002191, -0.00275996, -0.00245491, -0.00201318, -0.0124729, 0.48797, 0.212118
859.85862360299995544, -0.00275511, -0.00245877, -0.00200711, -0.0124571, 0.487021, 0.211295
859.89193994100003238, -0.00275422, -0.00246155, -0.00199965, -0.0125027, 0.489606, 0.213331
859.92525633100001414, -0.00275202, -0.00246441, -0.001995, -0.0125458, 0.492034, 0.215157
859.95857263599998532, -0.0027473, -0.00246521, -0.00198694, -0.0125687, 0.493308, 0.216058
859.99188896500004375, -0.00274316, -0.00246859, -0.00197475, -0.0125728, 0.493466, 0.216119
860.02520533100005196, -0.00273394, -0.00247152, -0.00196342, -0.01256, 0.492768, 0.21564
860.05852181199998086, -0.00273019, -0.00247294, -0.00195199, -0.0125692, 0.49317, 0.215842
860.09183796900003927, -0.00273375, -0.00247449, -0.00193621, -0.0125741, 0.493262, 0.215792
860.12515429799998401, -0.00273959, -0.00247863, -0.00192061, -0.0125513, 0.491955, 0.214813
860.15847063600006095, -0.00274463, -0.00248283, -0.00190624, -0.0125256, 0.490527, 0.213779
860.19193699799996011, -0.00274934, -0.00248692, -0.00189205, -0.012514, 0.489878, 0.213266
860.22525329300003705, -0.00274957, -0.00249433, -0.00187693, -0.0125062, 0.489472, 0.212943
860.2585696310000003, -0.00274924, -0.00250165, -0.00186827, -0.0124935, 0.488606, 0.212328
860.29188596500000585, -0.00274621, -0.00250785, -0.00185814, -0.0124998, 0.489095, 0.212607
860.32520229800002198, -0.0027434, -0.00251262, -0.00184861, -0.0125085, 0.489892, 0.213133
860.35851863100003811, -0.00274103, -0.00251591, -0.00183749, -0.0125221, 0.491427, 0.214266
860.39183494099995642, -0.00273929, -0.00252312, -0.0018253, -0.0125244, 0.491639, 0.214394
860.4251512980000598, -0.00273572, -0.00253065, -0.00181525, -0.0125253, 0.491565, 0.214276
860.45846763099996224, -0.00273684, -0.00253031, -0.00180179, -0.0125333, 0.493687, 0.216262
860.49178396900003918, -0.00273572, -0.00253606, -0.00179248, -0.0125346, 0.493828, 0.216355
860.52525030300000708, -0.00273255, -0.00254373, -0.00177886, -0.0125357, 0.493401, 0.215825
860.5585666309999624, -0.00272734, -0.00255184, -0.00177355, -0.0125353, 0.493111, 0.21549
860.59188296499996795, -0.0027248, -0.00255838, -0.001766, -0.0125377, 0.493771, 0.216135
860.62519933099997615, -0.0027185, -0.00256672, -0.00175986, -0.0125382, 0.493821, 0.216154
860.65851563100000021, -0.0027162, -0.00256792, -0.00175282, -0.0125481, 0.49542, 0.217696
860.69183196899996346, -0.00271624, -0.00256891, -0.00174521, -0.0125551, 0.496241, 0.218439
860.72514830299996902, -0.00271262, -0.00257641, -0.00174267, -0.0125472, 0.495397, 0.217658
860.7584646640000301, -0.00270873, -0.00257959, -0.0017386, -0.0125553, 0.496169, 0.218319
860.79178093600000921, -0.00270738, -0.00257975, -0.00173418, -0.0125636, 0.496871, 0.218897
860.82509729800005971, -0.00270593, -0.00258043, -0.0017293, -0.0125671, 0.497119, 0.219079
860.85841366399995422, -0.00271025, -0.00257671, -0.00171763, -0.0125826, 0.49818, 0.219894
860.89187996400005431, -0.00271269, -0.00257561, -0.00170474, -0.01259, 0.498606, 0.220177
860.92519630300000699, -0.00271374, -0.00257752, -0.00169254, -0.0125887, 0.498407, 0.219959
860.95851266399995438, -0.00271429, -0.0025809, -0.00168389, -0.012583, 0.497957, 0.219561
860.99182896399997844, -0.00271651, -0.00258312, -0.00167217, -0.0125833, 0.497886, 0.219454
861.02514533099997607, -0.00272079, -0.00258854, -0.00166078, -0.0125802, 0.497601, 0.219187
861.0584616639999922, -0.00272186, -0.00259397, -0.00164848, -0.0125735, 0.497036, 0.218694
861.09177799799999775, -0.00272258, -0.00259814, -0.0016346, -0.0125792, 0.497336, 0.218866
861.12509429800002181, -0.00272461, -0.00260323, -0.00162148, -0.01258, 0.497292, 0.218775
861.15841063599998506, -0.00272897, -0.00260634, -0.0016106, -0.0125803, 0.49725, 0.218706
861.19172696900000119, -0.00273608, -0.00260712, -0.00160103, -0.0125854, 0.497571, 0.218928
861.22519330299996909, -0.0027409, -0.00260764, -0.0015858, -0.0125962, 0.4983, 0.219458
861.25850966400003017, -0.00274355, -0.00261319, -0.00157556, -0.0125902, 0.49768, 0.218895
861.29182599800003572, -0.0027417, -0.00262554, -0.00156485, -0.0125808, 0.496775, 0.218098
861.32514229800005978, -0.00275039, -0.0026248, -0.00155219, -0.0125928, 0.497818, 0.218939
861.35845899299999928, -0.00275819, -0.00262939, -0.00154634, -0.0125911, 0.497625, 0.218765
861.39177499799995985, -0.0027694, -0.00262379, -0.00152927, -0.0126142, 0.499672, 0.220469
861.42509133099997598, -0.002774, -0.00261296, -0.00152167, -0.0126365, 0.501755, 0.222219
861.45840763100000004, -0.00277042, -0.00261051, -0.00151919, -0.0126387, 0.501777, 0.222184
861.49172396400001617, -0.00276993, -0.00260984, -0.00151762, -0.0126342, 0.501047, 0.221512
861.52504029800002172, -0.00277078, -0.0026104, -0.00151549, -0.0126313, 0.500936, 0.22146
861.55835663599998497, -0.00277096, -0.00261021, -0.00151538, -0.0126257, 0.499895, 0.220423
861.59182296899996345, -0.00276855, -0.0026081, -0.00151352, -0.0126278, 0.500564, 0.221108
861.62513933100001395, -0.00276789, -0.00260608, -0.0015106, -0.0126325, 0.501609, 0.222199
861.65845563599998513, -0.00276642, -0.00260529, -0.00151127, -0.0126287, 0.500856, 0.221421
861.69177199800003564, -0.00276374, -0.00260224, -0.00150614, -0.0126268, 0.501267, 0.22202
861.72508865500003594, -0.00276389, -0.00260249, -0.00151018, -0.0126221, 0.500011, 0.220537
861.75840463600002295, -0.00276465, -0.00260488, -0.00151123, -0.0125964, 0.498141, 0.218731
861.79172099300001264, -0.00276524, -0.00260259, -0.0015114, -0.0126156, 0.498729, 0.219011
861.82503733099997589, -0.00276288, -0.00260366, -0.00151089, -0.0126727, 0.500416, 0.21964
861.85835363099999995, -0.00276298, -0.00260271, -0.0015097, -0.0126471, 0.499417, 0.218846
861.89166999799999758, -0.00276125, -0.00260291, -0.00151006, -0.0126208, 0.498887, 0.218608
861.92513630200005537, -0.0027581, -0.0026025, -0.00151095, -0.012585, 0.497942, 0.218449
861.95845263600006092, -0.00275536, -0.00259865, -0.00150768, -0.0126982, 0.503266, 0.219811
861.99176900199995544, -0.00275465, -0.0025959, -0.00150597, -0.0127751, 0.507163, 0.220695
862.02508533100001387, -0.00275527, -0.00259328, -0.0015052, -0.0127914, 0.50777, 0.220749
862.05840163599998505, -0.00275699, -0.00259218, -0.00150239, -0.012867, 0.512272, 0.221797
862.09172039800000675, -0.00275753, -0.00259204, -0.00150115, -0.0128738, 0.512846, 0.222015
862.12503430200001731, -0.00275903, -0.00259073, -0.00150199, -0.0129083, 0.515951, 0.22287
862.15835066399995412, -0.00276086, -0.00259082, -0.0015018, -0.0128571, 0.511856, 0.221905
862.19166698300000462, -0.00276292, -0.00259117, -0.00149983, -0.0128208, 0.507329, 0.220562
862.22498329799998373, -0.00276565, -0.00259132, -0.00149999, -0.0128131, 0.5057, 0.22007
862.25829966399999194, -0.00276845, -0.0025952, -0.00150087, -0.0127967, 0.498829, 0.217851
862.29176599799995984, -0.00276747, -0.00259426, -0.00150161, -0.0128041, 0.497865, 0.217423
862.32508233099997597, -0.00276858, -0.00259441, -0.00150259, -0.0128142, 0.491097, 0.215053
862.35839863600006083, -0.00276791, -0.00259423, -0.00150296, -0.0128505, 0.485515, 0.212796
862.39171496400001615, -0.002768, -0.00259105, -0.00150526, -0.0128422, 0.489479, 0.214163
862.42503133100001378, -0.00276963, -0.00259036, -0.00150772, -0.0128611, 0.485155, 0.212598
862.45834760200000346, -0.0027706, -0.00259434, -0.00150742, -0.0129285, 0.479317, 0.209961
862.49166399800003546, -0.00277072, -0.00259575, -0.00150802, -0.012955, 0.479159, 0.209431
862.52498029800005952, -0.00277018, -0.00259681, -0.00150969, -0.0129389, 0.477374, 0.209109
862.55829666400006772, -0.00277177, -0.00259402, -0.00151135, -0.0129272, 0.48604, 0.211243
862.5916129690000389, -0.00277335, -0.00259099, -0.00151218, -0.0128832, 0.494516, 0.213599
862.62507930200001738, -0.00277421, -0.00258821, -0.00151238, -0.0128025, 0.503757, 0.216714
862.65839566399995419, -0.00277468, -0.00258519, -0.0015121, -0.0127322, 0.512028, 0.219421
862.69171196399997825, -0.00277527, -0.00258485, -0.00151164, -0.0127716, 0.507297, 0.217681
862.72502833099997588, -0.00277564, -0.00258287, -0.00151217, -0.0127916, 0.503029, 0.216398
862.75834466399999201, -0.00277689, -0.00258316, -0.00151132, -0.0128212, 0.497069, 0.214776
862.79166096899996319, -0.00277711, -0.00258139, -0.00151202, -0.0127955, 0.503665, 0.216439
862.82497733100001369, -0.00277699, -0.00258098, -0.00151226, -0.0127774, 0.510865, 0.21799
862.85829363100003775, -0.00277693, -0.00258071, -0.00151245, -0.0127756, 0.511742, 0.218203
862.89160999800003538, -0.00277722, -0.00257874, -0.00151451, -0.0127794, 0.517191, 0.219121
862.9249263310000515, -0.00277605, -0.00257806, -0.00151185, -0.0127731, 0.520439, 0.219696
862.95824263099996188, -0.00277531, -0.00257733, -0.00151171, -0.0127697, 0.5243, 0.220282
862.99170896900000116, -0.00277515, -0.00257627, -0.00151094, -0.012754, 0.529169, 0.22122
863.02502530200001729, -0.00277548, -0.00257423, -0.00151422, -0.0127365, 0.538552, 0.222871
863.05834163099996204, -0.00277673, -0.00257316, -0.00151434, -0.0127412, 0.542427, 0.223386
863.09165796900003897, -0.00277775, -0.00257248, -0.00151258, -0.0127589, 0.542557, 0.223179
863.1249743020000551, -0.00277661, -0.00257443, -0.00151486, -0.0128258, 0.531112, 0.220599
863.15829066399999192, -0.00277501, -0.00257475, -0.00151507, -0.0128494, 0.526193, 0.219554
863.1916069689999631, -0.00277368, -0.00257286, -0.00151856, -0.0126783, 0.541001, 0.223976
863.22492330199997923, -0.00277323, -0.00257291, -0.00151945, -0.0126657, 0.543247, 0.224513
863.25823963599998478, -0.00277269, -0.00257364, -0.00152045, -0.0128296, 0.535268, 0.221099
863.29155599700004586, -0.00277191, -0.0025734, -0.0015224, -0.0128805, 0.530715, 0.219556
863.32502230199997939, -0.0027702, -0.00257289, -0.00152714, -0.0129482, 0.52589, 0.217708
863.35833863100003782, -0.00276928, -0.0025735, -0.00152839, -0.0130912, 0.52068, 0.214825
863.39165499700004602, -0.00276873, -0.00257379, -0.00152802, -0.0132018, 0.516906, 0.21257
863.42497133100005158, -0.00276698, -0.00257384, -0.00153054, -0.0133211, 0.51371, 0.210128
863.45828763099996195, -0.00276624, -0.00257358, -0.00153159, -0.0134643, 0.510429, 0.207257
863.49160396399997808, -0.002766, -0.00257347, -0.00153105, -0.0135469, 0.508657, 0.205537
863.52492030200005502, -0.00276506, -0.00257327, -0.00153101, -0.0136297, 0.506943, 0.203855
863.55823663600006057, -0.00276411, -0.0025731, -0.00153118, -0.0137184, 0.505763, 0.202165
863.59155293599997094, -0.0027618, -0.00257199, -0.00153044, -0.0139157, 0.503148, 0.198137
863.62486931600005846, -0.00276004, -0.00257037, -0.00153141, -0.014164, 0.499612, 0.192653
863.65833563499995762, -0.00275963, -0.00256855, -0.00152941, -0.0142653, 0.498166, 0.190114
863.69165196400001605, -0.00276035, -0.00256916, -0.00153067, -0.0141716, 0.49891, 0.192781
863.72496833100001368, -0.00276, -0.00256933, -0.00153116, -0.0141703, 0.498948, 0.193209
863.75828463100003773, -0.00276066, -0.00257174, -0.00153265, -0.0140589, 0.498932, 0.197222
863.79160099700004594, -0.00276128, -0.00257333, -0.00153498, -0.0139834, 0.498745, 0.20022
863.82491726900002504, -0.00276224, -0.00257321, -0.00153828, -0.0139661, 0.498603, 0.201162
863.85823366400006762, -0.0027627, -0.00257213, -0.00154025, -0.0139891, 0.499099, 0.1999
863.89154999699997006, -0.00276344, -0.00257164, -0.00153949, -0.0139979, 0.499361, 0.199382
863.92486633099997562, -0.00276365, -0.00257226, -0.00154022, -0.0139903, 0.498128, 0.200923
863.95818266399999175, -0.00276426, -0.00257286, -0.00154175, -0.0139981, 0.49719, 0.201906
863.9914989640000158, -0.00276546, -0.00257394, -0.00154281, -0.0140008, 0.49527, 0.203663
864.02496530200005509, -0.00276579, -0.00257315, -0.00154174, -0.014011, 0.496874, 0.202359
864.05828165399998397, -0.00276645, -0.00257044, -0.00154261, -0.0140281, 0.499795, 0.199775
864.09159799700000804, -0.00276517, -0.00257063, -0.00154472, -0.0141178, 0.499966, 0.199011
864.12491439300004004, -0.00276471, -0.00256949, -0.00154414, -0.014173, 0.499128, 0.198575
864.15823063100003765, -0.00276475, -0.00256836, -0.00154168, -0.0141772, 0.500657, 0.197566
864.1915469690000009, -0.00276416, -0.00256974, -0.00154137, -0.0142868, 0.500085, 0.197872
864.22486330200001703, -0.00276392, -0.00256946, -0.00154009, -0.0143889, 0.499156, 0.197704
864.25817963099996177, -0.00276391, -0.00257081, -0.00154156, -0.014465, 0.494494, 0.199568
864.29149599699996998, -0.00276504, -0.00257114, -0.00154127, -0.0145101, 0.492651, 0.199873
864.32481233099997553, -0.00276404, -0.00257049, -0.00153963, -0.0145361, 0.494512, 0.198548
864.35827863500003332, -0.00276388, -0.00256948, -0.00153992, -0.0146208, 0.490192, 0.199711
864.39159499699997014, -0.00276421, -0.0025686, -0.00153803, -0.0147301, 0.485675, 0.200747
864.42491136399996776, -0.00276544, -0.00256877, -0.00153697, -0.014712, 0.4854, 0.200886
864.45822766399999182, -0.00276705, -0.00256893, -0.00153759, -0.014681, 0.481556, 0.202817
864.49154399700000795, -0.00276845, -0.00257022, -0.00153704, -0.0146404, 0.482016, 0.203099
864.52486106399999244, -0.00276901, -0.00257131, -0.00153559, -0.0146524, 0.486711, 0.201424
864.55817666400002963, -0.00277045, -0.00257122, -0.00153781, -0.0146408, 0.486689, 0.201753
864.59149296900000081, -0.00277257, -0.00257142, -0.00153783, -0.0146895, 0.491022, 0.199909
864.62480929699995613, -0.00277682, -0.00257186, -0.00153894, -0.0146029, 0.486282, 0.202295
864.65812563099996169, -0.00277787, -0.00257127, -0.00154078, -0.014522, 0.482263, 0.204469
864.69144199699996989, -0.00277807, -0.00257128, -0.00154128, -0.0145239, 0.482826, 0.204352
864.72490833100005148, -0.00277784, -0.00257123, -0.00154265, -0.0145813, 0.485757, 0.202709
864.75822466400006761, -0.00277901, -0.00257086, -0.00154335, -0.0147838, 0.493637, 0.198048
864.79154099699997005, -0.00278007, -0.00257176, -0.00154216, -0.0149225, 0.498797, 0.194898
864.8248573309999756, -0.00278119, -0.00257251, -0.00153834, -0.0149845, 0.500692, 0.193608
864.85817366399999173, -0.00278212, -0.00257267, -0.00153655, -0.0150478, 0.502773, 0.192223
864.89148999700000786, -0.00278404, -0.00257436, -0.00153466, -0.0152225, 0.508517, 0.188372
864.92480629199997111, -0.00278628, -0.00257536, -0.00153226, -0.0153388, 0.511789, 0.186161
864.95812263100003747, -0.00278776, -0.00257664, -0.00153361, -0.015286, 0.509759, 0.187643
864.9914389640000536, -0.00278845, -0.00257637, -0.00153315, -0.0152887, 0.509283, 0.187915
865.02475533100005123, -0.00279004, -0.00257601, -0.00153048, -0.015275, 0.508182, 0.188661
865.0582216640000297, -0.00279187, -0.00257614, -0.0015299, -0.0151709, 0.504546, 0.19138
865.09153796900000088, -0.00279152, -0.00257861, -0.00153109, -0.0152341, 0.506466, 0.190114
865.12485477300003822, -0.00279149, -0.00257884, -0.00153023, -0.0152544, 0.50659, 0.189922
865.15817063099996176, -0.00279135, -0.00257889, -0.00153047, -0.0152551, 0.506392, 0.189917
865.1914869350000572, -0.00279217, -0.00257849, -0.00152862, -0.0152548, 0.504851, 0.190334
865.22480332999998609, -0.00279323, -0.00257835, -0.00152696, -0.0152764, 0.503803, 0.190559
865.25811966399999164, -0.00279486, -0.00257778, -0.00152697, -0.015195, 0.499178, 0.193201
865.29143599700000777, -0.00279547, -0.00257744, -0.00152644, -0.0151118, 0.496706, 0.194853
865.3247523300000239, -0.00279538, -0.00257758, -0.00152806, -0.0150826, 0.493375, 0.195902
865.35806865899996865, -0.00279665, -0.00257763, -0.00152655, -0.0151405, 0.493272, 0.195177
865.39138496900000064, -0.00279688, -0.00257907, -0.00153053, -0.0149628, 0.486189, 0.199523
865.42485129700003199, -0.00279734, -0.00257877, -0.00153015, -0.0149373, 0.484975, 0.200117
865.45816766400002962, -0.00279697, -0.00257963, -0.00153232, -0.0149441, 0.486084, 0.19996
865.4914839690000008, -0.00279602, -0.0025805, -0.00153376, -0.0150195, 0.488176, 0.198827
865.52480029699995612, -0.0027967, -0.00258048, -0.00153302, -0.0150575, 0.490475, 0.197604
865.55811663500003306, -0.00279889, -0.00257876, -0.00153151, -0.0149694, 0.487797, 0.198946
865.59143299699996987, -0.00280008, -0.00257713, -0.00152999, -0.014959, 0.48898, 0.197977
865.62474930200005474, -0.00280077, -0.00257706, -0.00152972, -0.0149714, 0.493106, 0.196407
865.65806566399999156, -0.00280103, -0.00257784, -0.00153061, -0.0149548, 0.493458, 0.196643
865.69138199700000769, -0.00280234, -0.00257646, -0.00152982, -0.0149066, 0.491511, 0.197207
865.72469830199997887, -0.00280383, -0.00257397, -0.00152786, -0.0148256, 0.486328, 0.199163
865.75816466399999172, -0.00280474, -0.00257436, -0.00152552, -0.0148982, 0.488079, 0.198162
865.7914809349999814, -0.0028057, -0.00257537, -0.00152205, -0.0149569, 0.489414, 0.197932
865.8247972970000319, -0.00280611, -0.00257638, -0.001521, -0.0149887, 0.489633, 0.198162
865.85811366400002953, -0.00280613, -0.00257599, -0.00151842, -0.0148211, 0.476862, 0.204542
865.89142996800001129, -0.00280692, -0.00257544, -0.00151637, -0.0146954, 0.467854, 0.208962
865.92474630200001684, -0.00280716, -0.00257487, -0.00151563, -0.0146694, 0.464871, 0.210397
865.95806263500003297, -0.00280738, -0.00257541, -0.00151342, -0.0147263, 0.469097, 0.20855
865.99137899699996979, -0.0028065, -0.00257574, -0.00151474, -0.0146733, 0.468813, 0.209004
866.02469530200005465, -0.00280736, -0.00257664, -0.00151714, -0.0146932, 0.469749, 0.208716
866.0580116349999571, -0.00280815, -0.00257599, -0.00151482, -0.014662, 0.465519, 0.210744
866.0913279970000076, -0.00280881, -0.00257446, -0.00151124, -0.0145419, 0.453063, 0.216412
866.12479430200005481, -0.00280844, -0.00257465, -0.00151216, -0.0145182, 0.451421, 0.217315
866.15811063499995726, -0.00280735, -0.0025747, -0.00151436, -0.0144892, 0.449716, 0.218273
866.19142696400001569, -0.00280679, -0.00257465, -0.00151512, -0.0145095, 0.452847, 0.216852
866.22474333000002389, -0.00280713, -0.00257452, -0.00151472, -0.0145356, 0.455765, 0.215506
866.25805963000004795, -0.0028077, -0.00257377, -0.00151415, -0.0145801, 0.459625, 0.213489
866.29137599700004557, -0.00280752, -0.0025737, -0.00151523, -0.0145724, 0.458888, 0.213657
866.3246923300000617, -0.00280719, -0.00257439, -0.00151511, -0.0145161, 0.453822, 0.215961
866.35800866400006726, -0.00280696, -0.00257602, -0.00151659, -0.0144413, 0.447624, 0.218998
866.39132494000000406, -0.00280841, -0.00257811, -0.00152068, -0.0144639, 0.449668, 0.217941
866.42464132999998583, -0.00280869, -0.00257835, -0.00152292, -0.0145485, 0.456183, 0.214468
866.4581082490000199, -0.00280852, -0.00257864, -0.00152322, -0.0146064, 0.460048, 0.212325
866.49142399200002274, -0.00280752, -0.00257913, -0.00152472, -0.0146078, 0.460045, 0.21233
866.52474032999998599, -0.00280656, -0.00258048, -0.00152552, -0.0146304, 0.460976, 0.211735
866.55805666399999154, -0.00280701, -0.00258261, -0.0015255, -0.0146392, 0.460373, 0.21207
866.5913729679999733, -0.00280643, -0.00258294, -0.00152379, -0.0146262, 0.458984, 0.213006
866.6246893300000238, -0.00280588, -0.00258265, -0.00152286, -0.0146611, 0.45973, 0.212392
866.65800560599996061, -0.00280627, -0.00258349, -0.00152366, -0.014676, 0.460556, 0.211889
866.69132199700004549, -0.00280653, -0.00258352, -0.00152352, -0.0146822, 0.459744, 0.212387
866.72463833000006161, -0.00280631, -0.00258368, -0.00152146, -0.0147517, 0.462083, 0.210785
866.75795464899999843, -0.00280588, -0.0025832, -0.00151927, -0.0148206, 0.465387, 0.208659
866.79142096800001127, -0.00280661, -0.00258442, -0.00152225, -0.0148376, 0.463486, 0.209607
866.82473733000006177, -0.00280685, -0.00258486, -0.00152575, -0.0147543, 0.459126, 0.211945
866.85805367800003296, -0.00280663, -0.00258513, -0.00152925, -0.0146785, 0.456685, 0.213471
866.8913699639999777, -0.00280728, -0.00258494, -0.00152628, -0.0146888, 0.45924, 0.212515
866.92468964900001538, -0.0028063, -0.00258526, -0.00152147, -0.0148389, 0.469256, 0.20827
866.95800266399999146, -0.00280608, -0.00258539, -0.00151908, -0.0148812, 0.472123, 0.207226
866.99131896400001551, -0.0028057, -0.00258587, -0.00151925, -0.0149126, 0.472754, 0.206968
867.02463533000002371, -0.00280588, -0.00258578, -0.00151958, -0.0148494, 0.471522, 0.207757
867.0579516400000557, -0.00280566, -0.00258528, -0.00152046, -0.0148308, 0.471388, 0.207775
867.09126796400005333, -0.0028055, -0.00258517, -0.00152018, -0.0149229, 0.474244, 0.20614
867.12458479200006423, -0.00280546, -0.0025853, -0.00152046, -0.0149708, 0.475137, 0.205634
867.15805094400002417, -0.00280476, -0.0025847, -0.00151763, -0.0150435, 0.477159, 0.204343
867.19136696400005349, -0.00280456, -0.00258573, -0.00151989, -0.015051, 0.47455, 0.205206
867.22468333000006169, -0.00280375, -0.00258742, -0.00152563, -0.0149199, 0.466539, 0.208675
867.25799963500003287, -0.00280338, -0.00258749, -0.00152736, -0.0148302, 0.464238, 0.209922
867.29131596399997761, -0.00280316, -0.00258801, -0.00152952, -0.0147673, 0.463463, 0.210873
867.32463232999998581, -0.00280286, -0.00258812, -0.00153287, -0.0146765, 0.462148, 0.212067
867.35794866399999137, -0.00280302, -0.0025886, -0.00153477, -0.0146239, 0.463051, 0.212506
867.39126496400001542, -0.00280329, -0.00258929, -0.00153629, -0.0145904, 0.46375, 0.212807
867.42458177299999988, -0.00280375, -0.00259051, -0.0015361, -0.0145038, 0.459931, 0.214567
867.45789766300003976, -0.00280274, -0.00259226, -0.00153785, -0.0144082, 0.455015, 0.216886
867.49136394900006053, -0.00280218, -0.00259353, -0.00154032, -0.0143253, 0.452691, 0.218545
867.52468033000002379, -0.00280235, -0.00259346, -0.00154056, -0.0142806, 0.452413, 0.219066
867.55799666300003992, -0.00280406, -0.00258969, -0.00153993, -0.0143536, 0.458128, 0.216196
867.5913129680000111, -0.00280448, -0.00258917, -0.00154127, -0.0143404, 0.459907, 0.215917
867.62462930200001665, -0.00280489, -0.0025899, -0.00154266, -0.0143542, 0.459514, 0.216035
867.65794566299996404, -0.00280472, -0.00259221, -0.00154447, -0.0142708, 0.456171, 0.218343
867.6912619629999881, -0.00280623, -0.00259229, -0.0015408, -0.0142598, 0.455537, 0.21875
867.72457832999998573, -0.00280735, -0.002593, -0.00153885, -0.0142515, 0.455241, 0.219009
867.75789463499995691, -0.00280857, -0.00259438, -0.00153753, -0.0141367, 0.452553, 0.221141
867.79121099700000741, -0.00281206, -0.00259494, -0.0015341, -0.014066, 0.450558, 0.222726
867.82452733000002354, -0.00281652, -0.00259335, -0.00153104, -0.01413, 0.450796, 0.221728
867.857993949000047, -0.00281744, -0.00259221, -0.00153061, -0.0141672, 0.451198, 0.22093
867.89130996300002607, -0.00281941, -0.00259311, -0.00153032, -0.0141826, 0.451086, 0.220712
867.92462629700003163, -0.00282104, -0.00259381, -0.0015296, -0.0141724, 0.449941, 0.221207
867.95794263000004776, -0.00282209, -0.00259327, -0.00152652, -0.014146, 0.448161, 0.222083
867.99125896300006389, -0.00282208, -0.00259472, -0.00152632, -0.0140606, 0.445869, 0.224098
868.02457530200001656, -0.00282223, -0.00259451, -0.00152539, -0.0139894, 0.44431, 0.225644
868.05789165900000626, -0.0028223, -0.00259461, -0.0015255, -0.0139156, 0.442561, 0.227186
868.09120799699996951, -0.00282237, -0.00259459, -0.00152529, -0.0138858, 0.442226, 0.227784
868.12452432999998564, -0.00282285, -0.00259436, -0.00152262, -0.013967, 0.443139, 0.226594
868.1578406300000097, -0.00282275, -0.00259519, -0.00152078, -0.0139952, 0.443799, 0.22648
868.19130699699996967, -0.00282238, -0.00259772, -0.00151953, -0.0137997, 0.440434, 0.23043
868.22462419199996475, -0.00282172, -0.0025986, -0.00152141, -0.0136465, 0.437415, 0.233156
868.25793966300000193, -0.00282072, -0.0025995, -0.00152352, -0.0135287, 0.435764, 0.234938
868.29125596300002599, -0.00282057, -0.00260032, -0.0015253, -0.0135595, 0.436726, 0.23424
868.32457233000002361, -0.00282088, -0.00260064, -0.00152631, -0.0137062, 0.439467, 0.231862
868.35788863499999479, -0.00282107, -0.00260177, -0.00152893, -0.0137331, 0.440562, 0.231431
868.3912049630000638, -0.00282068, -0.00260233, -0.00153087, -0.0137447, 0.440869, 0.230901
868.42452133000006143, -0.00282059, -0.00260406, -0.00153371, -0.0137572, 0.441966, 0.230753
868.45783763500003261, -0.00282086, -0.00260435, -0.00153346, -0.0138205, 0.443127, 0.229768
868.49115393500005666, -0.00282134, -0.00260511, -0.00153444, -0.0137474, 0.443262, 0.230882
868.52447032999998555, -0.00282124, -0.00260458, -0.00153543, -0.0136733, 0.442618, 0.231853
868.55793666299996403, -0.00282187, -0.00260371, -0.00153409, -0.0136574, 0.442126, 0.232236
868.59125300100004097, -0.00282314, -0.00260139, -0.00153195, -0.0135814, 0.44048, 0.233152
868.62456932999998571, -0.00282422, -0.00259925, -0.00153089, -0.0135743, 0.439108, 0.233119
868.65788566300000184, -0.00282564, -0.00259894, -0.00153166, -0.0136166, 0.439178, 0.232651
868.69120193499998095, -0.00282716, -0.00259984, -0.00153114, -0.0136441, 0.439564, 0.232633
868.72451833000002352, -0.0028281, -0.0026009, -0.00153202, -0.0136465, 0.439387, 0.232618
868.75783463499999471, -0.00282871, -0.00260319, -0.00153482, -0.013681, 0.439435, 0.232245
868.79115099700004521, -0.00282997, -0.00260562, -0.00153788, -0.0137123, 0.44017, 0.231792
868.82446733000006134, -0.00283143, -0.00260569, -0.00153626, -0.0137536, 0.441431, 0.231043
868.85778366299996378, -0.00283177, -0.00260549, -0.00153555, -0.013788, 0.441913, 0.23046
868.89124996300006387, -0.00283059, -0.00260449, -0.00153532, -0.0137292, 0.441424, 0.231615
868.92456629699995574, -0.00283084, -0.00260337, -0.00153486, -0.0136879, 0.441341, 0.232134
868.95788266299996394, -0.00283244, -0.00260318, -0.00153471, -0.0136553, 0.441268, 0.232007
868.99119896800004881, -0.00283277, -0.00260518, -0.00153627, -0.013665, 0.441906, 0.231837
869.02451529699999355, -0.00283286, -0.0026072, -0.00153777, -0.0137009, 0.442512, 0.231419
869.0578316349999568, -0.00283292, -0.00260798, -0.00153758, -0.0137446, 0.443107, 0.231182
869.09114797799998087, -0.00283339, -0.00260998, -0.00153688, -0.0138428, 0.444075, 0.230008
869.12446430099998906, -0.00283315, -0.00261198, -0.00153564, -0.0140266, 0.444412, 0.227346
869.15778066300003957, -0.00283294, -0.00261255, -0.00153567, -0.0140442, 0.444178, 0.227017
869.19109696800001075, -0.00283262, -0.00261356, -0.0015371, -0.0140767, 0.44434, 0.226437
869.22441330100002688, -0.00283288, -0.00261425, -0.00153807, -0.0140383, 0.445033, 0.226861
869.25787966300003973, -0.0028328, -0.00261333, -0.00154026, -0.0139143, 0.444397, 0.228501
869.29119595800000297, -0.00283219, -0.00261233, -0.00154425, -0.0139376, 0.443042, 0.227929
869.32451233000006141, -0.00283053, -0.00261276, -0.00155026, -0.0140172, 0.442947, 0.226198
869.35782866299996385, -0.00283082, -0.00261295, -0.00155015, -0.0140969, 0.442618, 0.225019
869.39114499699996941, -0.00283156, -0.00261329, -0.00155023, -0.0142011, 0.442885, 0.223461
869.42446132999998554, -0.00283217, -0.00261353, -0.00155065, -0.0141763, 0.443396, 0.223827
869.45777766300000167, -0.00283337, -0.00261358, -0.00154816, -0.0141283, 0.443192, 0.224985
869.49109399700000722, -0.00283419, -0.00261409, -0.00154464, -0.0141555, 0.443341, 0.224992
869.52441033000002335, -0.00283461, -0.00261392, -0.00154391, -0.0142067, 0.442713, 0.224317
869.55772666300003948, -0.00283565, -0.00261439, -0.00154092, -0.0142485, 0.443919, 0.224034
869.59119299700000738, -0.00283681, -0.00261501, -0.0015384, -0.014302, 0.446147, 0.224185
869.6245093249999627, -0.00283816, -0.0026154, -0.00153733, -0.0142443, 0.44579, 0.22611
869.65782563499999469, -0.00283848, -0.00261534, -0.00153864, -0.0141056, 0.445205, 0.228541
869.6911419630000637, -0.0028387, -0.00261528, -0.00153952, -0.0140775, 0.445607, 0.229249
869.72445829599996614, -0.00283868, -0.00261524, -0.00154014, -0.0141468, 0.446556, 0.228373
869.75777462999997169, -0.00284006, -0.00261546, -0.00153863, -0.0141645, 0.445752, 0.228443
869.79109096800004863, -0.00284174, -0.00261625, -0.00153584, -0.0140951, 0.446879, 0.229614
869.82440730100006476, -0.00284194, -0.00261624, -0.00153652, -0.014072, 0.447281, 0.229976
869.85772366300000158, -0.00284203, -0.00261583, -0.00153663, -0.014135, 0.447496, 0.228483
869.89103999600001771, -0.00284374, -0.00261583, -0.00153697, -0.0140347, 0.446862, 0.229996
869.92450632999998561, -0.00284453, -0.0026158, -0.00153671, -0.0140884, 0.446279, 0.229101
869.95782263000000967, -0.00284497, -0.00261667, -0.00153563, -0.0140931, 0.448417, 0.229055
869.99113899600001787, -0.00284677, -0.00261725, -0.00153388, -0.0140067, 0.449914, 0.230408
870.02445470099996783, -0.0028477, -0.00261776, -0.00153384, -0.0138577, 0.449297, 0.232792
870.05776976799995737, -0.00284969, -0.00261798, -0.0015319, -0.0137451, 0.448883, 0.234913
870.09108484000000772, -0.00285138, -0.00261882, -0.00153148, -0.0137174, 0.449582, 0.235925
870.12439997399997083, -0.00285264, -0.00261904, -0.00153032, -0.0136907, 0.449038, 0.236871
870.15771510299998681, -0.00285386, -0.00261867, -0.00152851, -0.013567, 0.447216, 0.239097
870.19103020399995785, -0.00285609, -0.00261819, -0.00152429, -0.0134342, 0.446315, 0.241133
870.22434530500004257, -0.00285713, -0.00261714, -0.0015226, -0.0134792, 0.446531, 0.239867
870.25766037200003211, -0.00285734, -0.00261717, -0.00152277, -0.0134982, 0.4469, 0.239546
870.29112547199997607, -0.00285748, -0.0026184, -0.0015247, -0.0134865, 0.44767, 0.239931
870.32444060099999206, -0.00286001, -0.00261786, -0.00152306, -0.0134361, 0.447777, 0.240415
870.3577556679999816, -0.00286034, -0.00261674, -0.00152215, -0.0135281, 0.44828, 0.238847
870.39107080200005839, -0.00286043, -0.00261627, -0.00152365, -0.0136836, 0.449559, 0.236404
870.42438587399999506, -0.00286096, -0.0026159, -0.00152495, -0.0138843, 0.451181, 0.233364
870.45770100400000047, -0.00286137, -0.00261547, -0.00152338, -0.0139889, 0.452085, 0.231891
870.49101607600005082, -0.00286216, -0.00261535, -0.00152135, -0.0140753, 0.452384, 0.230641
870.5243312050000668, -0.00286258, -0.00261524, -0.00152008, -0.0140244, 0.452289, 0.231326
870.55764624799996909, -0.0028637, -0.00261446, -0.00151669, -0.014037, 0.452335, 0.230994
870.59096140600001945, -0.00286441, -0.00261333, -0.00151716, -0.0139753, 0.451568, 0.231733
870.62442643899998984, -0.00286455, -0.00261375, -0.00151828, -0.0138674, 0.45093, 0.233282
870.65774160199998732, -0.00286522, -0.00261382, -0.00151767, -0.0137756, 0.450579, 0.23468
870.69105666899997686, -0.00286705, -0.00261472, -0.00151646, -0.0138136, 0.45103, 0.234106
870.72437177400001929, -0.00286843, -0.00261478, -0.00151716, -0.0138699, 0.451043, 0.233098
870.7576869040000247, -0.00286809, -0.00261584, -0.0015179, -0.013825, 0.451403, 0.23371
870.79100200400000631, -0.00286865, -0.00261615, -0.00151707, -0.0138577, 0.452084, 0.233231
870.82431710499997735, -0.00286968, -0.00261678, -0.00151586, -0.0139097, 0.452639, 0.232271
870.85763220499995896, -0.00286996, -0.0026167, -0.00151626, -0.0138472, 0.452753, 0.233272
870.89094727799999873, -0.00287001, -0.00261677, -0.00151683, -0.0137725, 0.452828, 0.234449
870.92426237300003322, -0.00287094, -0.0026158, -0.00151546, -0.0136709, 0.45241, 0.236206
870.95757747900006507, -0.00287364, -0.00261497, -0.00151142, -0.0136775, 0.451742, 0.236496
870.9910425740000619, -0.00287525, -0.00261524, -0.00150883, -0.0137078, 0.45223, 0.235909
871.02435844900003303, -0.00287443, -0.00261601, -0.00151246, -0.0137287, 0.452675, 0.235884
871.05767474100002801, -0.00287796, -0.00261667, -0.00151173, -0.0137961, 0.452064, 0.235784
871.09099107899999126, -0.00287849, -0.00261722, -0.00151339, -0.0137284, 0.450924, 0.236853
871.12430744100004176, -0.00287806, -0.00261654, -0.0015153, -0.0136911, 0.449774, 0.237389
871.15762377400005789, -0.00287841, -0.00261806, -0.00151512, -0.0137164, 0.450979, 0.236809
871.19094007399996826, -0.00288023, -0.00261988, -0.00151378, -0.0137693, 0.452545, 0.235786
871.2242564120000452, -0.0028823, -0.00262045, -0.00151221, -0.0138379, 0.452138, 0.234872
871.25757277399998202, -0.00288366, -0.00261935, -0.00151152, -0.0138033, 0.45142, 0.235409
871.2908890449999717, -0.00288201, -0.00261987, -0.00151495, -0.0137611, 0.448937, 0.236625
871.32435540699998455, -0.00288235, -0.00262052, -0.00151456, -0.0137889, 0.448626, 0.236382
871.35767177399998218, -0.00288275, -0.002622, -0.00151435, -0.013806, 0.448094, 0.236623
871.39098810699999831, -0.00288251, -0.0026229, -0.00151553, -0.0138294, 0.44816, 0.236511
871.4243044170000303, -0.00288331, -0.00262095, -0.00151322, -0.01382, 0.446815, 0.236953
871.45762074100002792, -0.002884, -0.00261838, -0.00151169, -0.0138212, 0.445684, 0.237577
871.49093707400004405, -0.0028849, -0.00261816, -0.00151039, -0.0138689, 0.445944, 0.23724
871.52425344499999937, -0.00288625, -0.00261724, -0.00151039, -0.0138908, 0.443893, 0.238036
871.55756974100006573, -0.00288533, -0.00261687, -0.00151161, -0.0138515, 0.44167, 0.239873
871.59088610699996025, -0.00288403, -0.00261658, -0.00151281, -0.01384, 0.440909, 0.240014
871.62420240699998431, -0.00288367, -0.00261656, -0.00151359, -0.0138196, 0.440855, 0.240039
871.65751907399999254, -0.00288343, -0.00261957, -0.00151447, -0.013813, 0.442311, 0.239082
871.69098510699996041, -0.00288329, -0.00262076, -0.00151526, -0.0137726, 0.443513, 0.238192
871.72430140699998447, -0.00288221, -0.00262058, -0.00151592, -0.0138119, 0.442858, 0.239198
871.75761771199995565, -0.00288102, -0.00262118, -0.00151737, -0.0138169, 0.441451, 0.239779
871.79093407900006696, -0.00288002, -0.00262047, -0.00151769, -0.0137872, 0.440742, 0.239953
871.82425040700002228, -0.00288122, -0.00262069, -0.00151893, -0.0137628, 0.440738, 0.239826
871.85756674100002783, -0.00288097, -0.00262259, -0.00152012, -0.0137732, 0.441824, 0.239273
871.89088310700003603, -0.00288094, -0.00262346, -0.00152005, -0.0137755, 0.442705, 0.238625
871.92419944100004159, -0.00288134, -0.00262538, -0.00152103, -0.0137535, 0.443084, 0.239615
871.95751573999996253, -0.00288338, -0.0026262, -0.00151634, -0.0137642, 0.443473, 0.240686
871.99083210699996016, -0.00288482, -0.00262667, -0.00150898, -0.013783, 0.443932, 0.239992
872.024298382999973, -0.00288889, -0.0026282, -0.00150276, -0.0137715, 0.444039, 0.240044
872.05761471699997855, -0.0028907, -0.00263057, -0.00150261, -0.0137743, 0.444396, 0.239692
872.09093110699996032, -0.00289183, -0.00263409, -0.00150467, -0.0137475, 0.443984, 0.240814
872.12424743999997645, -0.00289313, -0.00263611, -0.00150349, -0.0137304, 0.443783, 0.241123
872.15756371199995556, -0.00289339, -0.00263745, -0.00150392, -0.0137353, 0.443991, 0.240481
872.19088010699999813, -0.00289203, -0.00263918, -0.00150458, -0.0137447, 0.444049, 0.240119
872.22419641199996931, -0.00289061, -0.00263872, -0.00150421, -0.013751, 0.444009, 0.240406
872.25751334000005954, -0.00288972, -0.00263791, -0.00150408, -0.0137571, 0.444061, 0.240606
872.29082907400004387, -0.00288996, -0.00263814, -0.00150351, -0.0137643, 0.444147, 0.240966
872.32414541200000713, -0.00289062, -0.002638, -0.00150254, -0.0137773, 0.444087, 0.241136
872.35746173999996245, -0.00289215, -0.00263897, -0.00150174, -0.0137971, 0.444113, 0.241373
872.39092807400004403, -0.00289238, -0.00263781, -0.00150344, -0.0138039, 0.443863, 0.242116
872.42424444000005224, -0.00289256, -0.00263729, -0.00150309, -0.0138039, 0.443874, 0.242435
872.45756071200003134, -0.0028927, -0.00263744, -0.00150301, -0.0138151, 0.443961, 0.242394
872.49087710699996023, -0.00289495, -0.00263783, -0.00150021, -0.0138639, 0.44393, 0.242152
872.52419340699998429, -0.00289537, -0.00263668, -0.00150061, -0.0138931, 0.443427, 0.242787
872.55750977399998192, -0.00289533, -0.00263639, -0.00150081, -0.0138876, 0.443037, 0.243052
872.59082607400000597, -0.0028959, -0.00263731, -0.00150075, -0.0138917, 0.443728, 0.242823
872.62414244000001418, -0.00289666, -0.00263811, -0.00149849, -0.0138979, 0.444786, 0.242357
872.65745877400001973, -0.00289732, -0.00263781, -0.00149723, -0.0139078, 0.444504, 0.24211
872.69077510700003586, -0.00289836, -0.00263733, -0.00149595, -0.0139419, 0.443651, 0.242313
872.72424141199996939, -0.00289929, -0.00263719, -0.00149455, -0.0139821, 0.442541, 0.242529
872.75755771700005425, -0.00290113, -0.00263718, -0.00149423, -0.0140245, 0.441909, 0.242361
872.79087410700003602, -0.00290115, -0.00263674, -0.00149794, -0.0139852, 0.442215, 0.242026
872.82419044000005215, -0.00290183, -0.00263624, -0.00149883, -0.0140505, 0.441507, 0.241915
872.85750671699997838, -0.00290222, -0.00263706, -0.00149835, -0.0141345, 0.440291, 0.242
872.89082310699996015, -0.00290215, -0.00263708, -0.0014967, -0.0142067, 0.438931, 0.242235
872.92413943999997628, -0.00290257, -0.00263662, -0.0014961, -0.0142729, 0.437918, 0.242368
872.95745574000000033, -0.00290306, -0.00263605, -0.00149649, -0.0143189, 0.436527, 0.242576
872.99077210699999796, -0.0029038, -0.00263566, -0.0014983, -0.0143578, 0.435463, 0.242639
873.02408841199996914, -0.0029039, -0.00263452, -0.00150073, -0.0142465, 0.437254, 0.24221
873.0575547450000613, -0.0029038, -0.00263412, -0.00150305, -0.0141251, 0.440034, 0.241651
873.09087110699999812, -0.00290331, -0.00263455, -0.00150288, -0.014074, 0.441026, 0.241529
873.1241874119999693, -0.00290345, -0.00263516, -0.00150289, -0.0140687, 0.441152, 0.241602
873.15750374000003831, -0.00290344, -0.00263491, -0.00150427, -0.0141277, 0.43873, 0.242046
873.19082007800000156, -0.00290323, -0.002635, -0.00150577, -0.0141352, 0.438257, 0.242247
873.22413641200000711, -0.00290387, -0.002635, -0.00150405, -0.014125, 0.439539, 0.242082
873.25745277400005762, -0.00290436, -0.00263362, -0.00150586, -0.0140442, 0.441262, 0.241701
873.29076907800003937, -0.0029047, -0.00263332, -0.00150551, -0.0139743, 0.442107, 0.241439
873.32408543999997619, -0.00290468, -0.0026334, -0.00150517, -0.0139491, 0.44277, 0.241188
873.35740177399998174, -0.00290437, -0.00263354, -0.00150487, -0.0139096, 0.443848, 0.240737
873.39071810699999787, -0.00290417, -0.00263357, -0.00150214, -0.0138767, 0.445287, 0.240211
873.42418443999997635, -0.00290399, -0.00263377, -0.00149746, -0.0139328, 0.443683, 0.240767
873.45750074500006122, -0.00290229, -0.00263449, -0.00149493, -0.0139409, 0.44234, 0.241245
873.49081858299996384, -0.0029015, -0.00263573, -0.00149443, -0.0140178, 0.440481, 0.241924
873.52413341199996921, -0.00290072, -0.00263598, -0.00149474, -0.013981, 0.44017, 0.242081
873.55744974000003822, -0.00290086, -0.00263702, -0.00149446, -0.0139755, 0.439839, 0.242225
873.59076610700003584, -0.00290341, -0.00263577, -0.00149461, -0.0139985, 0.439525, 0.242356
873.6240824070000599, -0.00290553, -0.00263208, -0.00149372, -0.0139446, 0.439894, 0.242176
873.65739873999996234, -0.00290506, -0.00263144, -0.00149352, -0.0139551, 0.440147, 0.242214
873.69071510699995997, -0.00290382, -0.00263197, -0.00149198, -0.0139883, 0.440423, 0.24205
873.7240314399999761, -0.00290474, -0.00263113, -0.0014887, -0.0140654, 0.439991, 0.241878
873.75749771200003124, -0.00290432, -0.00263126, -0.00148721, -0.0140591, 0.440316, 0.241784
873.79081407399996806, -0.00290452, -0.00263144, -0.0014872, -0.0140847, 0.44032, 0.24173
873.824130412000045, -0.00290645, -0.00263364, -0.00148781, -0.0140503, 0.440573, 0.241538
873.85744673099998181, -0.00290782, -0.00263673, -0.00148766, -0.0140925, 0.441439, 0.240999
873.89076307400000587, -0.0029075, -0.00263669, -0.00148752, -0.0141175, 0.440956, 0.240994
873.92407941199996912, -0.00290832, -0.00263699, -0.00148787, -0.0141295, 0.439663, 0.241281
873.95739574499998525, -0.00291012, -0.00263741, -0.00148958, -0.0141472, 0.438965, 0.241447
873.99071210700003576, -0.00291076, -0.00263853, -0.00149139, -0.0140221, 0.439329, 0.241778
874.02402844000005189, -0.00291028, -0.00263891, -0.00149237, -0.0139427, 0.441091, 0.241585
874.05734474500002307, -0.00291136, -0.00264088, -0.00149344, -0.0139599, 0.441669, 0.241315
874.09066110699995988, -0.00291163, -0.00264175, -0.00149381, -0.0139089, 0.441862, 0.241479
874.12412744000005205, -0.00291201, -0.00264169, -0.00149431, -0.0139986, 0.439717, 0.241851
874.1574437740000576, -0.00291094, -0.0026421, -0.00149409, -0.0140124, 0.438152, 0.242091
874.19076004500004728, -0.00291118, -0.00264304, -0.00149281, -0.0139252, 0.439317, 0.24212
874.22407641200004491, -0.00291196, -0.00264729, -0.00149451, -0.0139858, 0.440653, 0.241705
874.25739271199995528, -0.00291186, -0.00264757, -0.00149504, -0.0139963, 0.441424, 0.241459
874.29070904499997141, -0.00291259, -0.00264684, -0.0014955, -0.0141509, 0.440999, 0.241438
874.32402544000001399, -0.00291328, -0.0026481, -0.00149255, -0.0141268, 0.443453, 0.24114
874.35734177300003012, -0.00291393, -0.00264985, -0.00148907, -0.014122, 0.446011, 0.240642
874.39065810700003567, -0.00291442, -0.00265099, -0.0014871, -0.0141061, 0.447638, 0.240515
874.4239744400000518, -0.002915, -0.00265165, -0.00148541, -0.0141053, 0.448757, 0.240437
874.45744074499998533, -0.00291572, -0.00265312, -0.00148334, -0.0140626, 0.450355, 0.240297
874.49075710700003583, -0.00291465, -0.00265269, -0.00148207, -0.0138509, 0.450681, 0.240589
874.52407344000005196, -0.00291436, -0.00265254, -0.00148289, -0.0137626, 0.450497, 0.24054
874.55738977300006809, -0.00291618, -0.00265296, -0.0014787, -0.0139678, 0.449327, 0.239942
874.59070606399995995, -0.00291702, -0.00265315, -0.00147527, -0.0141143, 0.448041, 0.239783
874.62402240699998401, -0.002915, -0.00265317, -0.0014778, -0.0141115, 0.446816, 0.240572
874.65733874500006095, -0.00291458, -0.00265239, -0.00147875, -0.013971, 0.447899, 0.24094
874.69065510699999777, -0.00291437, -0.0026525, -0.0014769, -0.0138545, 0.449474, 0.240708
874.72397140700002183, -0.00291432, -0.0026527, -0.0014776, -0.0138551, 0.45, 0.240434
874.75728774499998508, -0.00291438, -0.00265296, -0.00147913, -0.0140528, 0.446803, 0.240569
874.79060410700003558, -0.00291425, -0.00265278, -0.00148013, -0.0140739, 0.44635, 0.240634
874.82407044000001406, -0.00291379, -0.00265183, -0.00148023, -0.0140392, 0.44558, 0.240904
874.85738674499998524, -0.00291327, -0.00265028, -0.00147956, -0.013772, 0.44789, 0.241276
874.89070307300005425, -0.00291342, -0.00265083, -0.00148056, -0.013657, 0.449538, 0.24154
874.92401944000005187, -0.00291292, -0.00265067, -0.00148169, -0.0134964, 0.451276, 0.241657
874.95733571599998868, -0.00291239, -0.00265029, -0.00148309, -0.0133786, 0.451813, 0.241732
874.99065210699995987, -0.00291277, -0.00265239, -0.00148427, -0.0134378, 0.450713, 0.241781
875.023968439999976, -0.00291278, -0.00265443, -0.00148433, -0.0135381, 0.449702, 0.241856
875.05728634000001875, -0.00291269, -0.00265604, -0.0014842, -0.0136207, 0.448955, 0.241879
875.09060107799996331, -0.00291282, -0.0026579, -0.00148404, -0.0137345, 0.448458, 0.241789
875.12391744000001381, -0.00291359, -0.00265843, -0.00148287, -0.0137744, 0.448991, 0.241529
875.15738374500006103, -0.00291382, -0.00265767, -0.0014824, -0.013736, 0.450022, 0.241364
875.19070010699999784, -0.00291422, -0.00265576, -0.00148197, -0.0136028, 0.450835, 0.241572
875.22401638300004834, -0.00291383, -0.00265495, -0.00148193, -0.0135273, 0.451643, 0.241585
875.2573327730000301, -0.0029135, -0.00265457, -0.00148144, -0.0135069, 0.452504, 0.24141
875.29064907800000128, -0.0029136, -0.00265674, -0.00148177, -0.0136461, 0.450703, 0.241516
875.32396887300001254, -0.00291339, -0.00265746, -0.00148331, -0.0136636, 0.450203, 0.241621
875.35728173999996216, -0.00291373, -0.0026574, -0.00148513, -0.0136646, 0.449746, 0.241743
875.39059810699995978, -0.00291328, -0.0026574, -0.0014842, -0.0136221, 0.451125, 0.241619
875.42391443999997591, -0.00291349, -0.00265695, -0.00148326, -0.0135793, 0.452112, 0.241565
875.45723074500006078, -0.00291416, -0.00265693, -0.00148233, -0.0135969, 0.451359, 0.241583
875.4905470730000161, -0.00291445, -0.00265871, -0.00148286, -0.0137369, 0.448402, 0.241688
875.524013406999984, -0.00291493, -0.00266012, -0.00148422, -0.0139091, 0.445893, 0.241441
875.55733031099998698, -0.00291519, -0.00266041, -0.0014852, -0.0139647, 0.445138, 0.241232
875.59064610699999776, -0.00291578, -0.00265864, -0.00148155, -0.0138208, 0.447755, 0.241178
875.62396244000001388, -0.00291656, -0.00265961, -0.00148239, -0.0138849, 0.447394, 0.241032
875.65727871600006438, -0.00291684, -0.00266144, -0.00148276, -0.0140238, 0.445434, 0.240903
875.69059507800000119, -0.00291773, -0.00266064, -0.00148027, -0.013952, 0.447148, 0.240724
875.72391141100001732, -0.00291901, -0.00266083, -0.00147831, -0.0139862, 0.446684, 0.240634
875.75722777300006783, -0.00291946, -0.00266367, -0.00147881, -0.0141725, 0.444549, 0.240424
875.79054410699995969, -0.00291982, -0.00266463, -0.00147897, -0.0142476, 0.443419, 0.240414
875.82386040699998375, -0.00292, -0.00266552, -0.0014811, -0.0142768, 0.442647, 0.240592
875.85732671599998866, -0.00292106, -0.00266502, -0.00148298, -0.0142772, 0.441606, 0.240815
875.89064307299997836, -0.00292204, -0.00266483, -0.00148277, -0.0142269, 0.442234, 0.241039
875.9239594110000553, -0.00292408, -0.00266418, -0.00148106, -0.0141802, 0.442529, 0.241275
875.95727577299999211, -0.00292354, -0.0026646, -0.00147882, -0.0142866, 0.441482, 0.241186
875.99059210699999767, -0.00292253, -0.00266516, -0.00148122, -0.0142879, 0.441073, 0.241365
876.02390840700002173, -0.00292165, -0.00266528, -0.00148096, -0.0142514, 0.440622, 0.241638
876.05722550200005116, -0.00292195, -0.00266499, -0.00148182, -0.0141907, 0.441757, 0.241507
876.09054104500000903, -0.00292271, -0.00266431, -0.00148119, -0.0141381, 0.442705, 0.241353
876.12385741100001724, -0.00292402, -0.00266322, -0.00148109, -0.014071, 0.442623, 0.241587
876.15717373999996198, -0.00292657, -0.00266151, -0.00147815, -0.0140482, 0.442858, 0.24127
876.19064167800001997, -0.00292714, -0.00265921, -0.00147525, -0.0140169, 0.442617, 0.240922
876.22395644000005177, -0.00292737, -0.00265808, -0.00147223, -0.013974, 0.441923, 0.24089
876.25727273999996214, -0.00292728, -0.00265773, -0.00147107, -0.0139175, 0.441191, 0.241209
876.29058910699995977, -0.00292705, -0.00265758, -0.0014704, -0.0138871, 0.44104, 0.241221
876.3239054399999759, -0.00292658, -0.00265724, -0.00147116, -0.0138707, 0.441021, 0.241125
876.35722177299999203, -0.0029264, -0.00265701, -0.00147232, -0.0138644, 0.441178, 0.240855
876.39053811099995528, -0.00292643, -0.00265639, -0.00147269, -0.0138562, 0.441554, 0.240339
876.42385444900003222, -0.00292654, -0.00265568, -0.00147234, -0.0138515, 0.44181, 0.239583
876.45717077799997696, -0.00292667, -0.00265465, -0.00147007, -0.0138425, 0.441149, 0.239185
876.49048710600004597, -0.002928, -0.0026541, -0.00146861, -0.0138569, 0.439813, 0.239473
876.52380344000005152, -0.00292825, -0.00265395, -0.00146784, -0.0138484, 0.438994, 0.239764
876.55726977300003, -0.00292916, -0.00265533, -0.00146792, -0.0138798, 0.437732, 0.240597
876.59058604500000911, -0.00292904, -0.00265721, -0.00146968, -0.0138881, 0.43707, 0.24152
876.62390241100001731, -0.00292939, -0.00265711, -0.00146941, -0.0138691, 0.436509, 0.241755
876.65721874500002286, -0.00293037, -0.00265746, -0.0014696, -0.013887, 0.43769, 0.241097
876.69053510599997026, -0.00293133, -0.00265849, -0.00146682, -0.0139775, 0.439048, 0.240423
876.72385140599999431, -0.0029323, -0.00265884, -0.00146696, -0.013983, 0.438075, 0.240955
876.75716777299999194, -0.00293254, -0.00265869, -0.00146684, -0.0139676, 0.437471, 0.241204
876.79048407799996312, -0.00293219, -0.00266026, -0.00146769, -0.01398, 0.438073, 0.24124
876.82380040600003213, -0.00293183, -0.00266359, -0.00146793, -0.0140214, 0.439762, 0.241417
876.8571167449999848, -0.00293146, -0.00266514, -0.00146641, -0.0140484, 0.441574, 0.241656
876.89058310600000823, -0.00293115, -0.00266447, -0.00146427, -0.0140886, 0.442401, 0.241246
876.92389944000001378, -0.00293098, -0.00266429, -0.00146454, -0.014135, 0.441602, 0.241366
876.95721574499998496, -0.00293149, -0.00266456, -0.00146653, -0.0141623, 0.43959, 0.242045
876.99053207300005397, -0.00293155, -0.00266498, -0.0014693, -0.014204, 0.438404, 0.242472
877.02384843499999079, -0.00293283, -0.0026645, -0.00146695, -0.0142091, 0.439683, 0.241635
877.05716477300006773, -0.00293489, -0.00266399, -0.0014631, -0.0141619, 0.441431, 0.240873
877.09048110599997017, -0.00293488, -0.00266371, -0.00146188, -0.0141385, 0.439875, 0.24133
877.12379743999997572, -0.00293598, -0.00266329, -0.00146023, -0.0141005, 0.439829, 0.24148
877.15711377299999185, -0.00293672, -0.00266408, -0.00146271, -0.0140719, 0.440677, 0.24117
877.19043010600000798, -0.00293727, -0.00266361, -0.00146248, -0.0140418, 0.440188, 0.240946
877.2237463830000479, -0.00293748, -0.00266358, -0.00146354, -0.0140902, 0.437598, 0.241318
877.25721277299999201, -0.00293812, -0.00266217, -0.0014646, -0.0140807, 0.435423, 0.241649
877.29052910600000814, -0.00293896, -0.00266103, -0.00146458, -0.014093, 0.434103, 0.241739
877.3238454060000322, -0.00293992, -0.00266167, -0.00146705, -0.0140073, 0.435817, 0.241581
877.35716177300002983, -0.00294096, -0.00266129, -0.00146904, -0.013967, 0.435357, 0.241606
877.39047810600004595, -0.0029404, -0.00266009, -0.00146642, -0.0140205, 0.432469, 0.242077
877.42379441100001713, -0.00293794, -0.00266108, -0.00146998, -0.0140056, 0.431172, 0.242491
877.45711073500001476, -0.00293814, -0.00266059, -0.00147138, -0.0139497, 0.430613, 0.242954
877.49042707299997801, -0.00293778, -0.00266291, -0.00147478, -0.0139463, 0.432345, 0.242223
877.52374343999997564, -0.00293832, -0.00266344, -0.0014752, -0.0139637, 0.433433, 0.24178
877.55705977299999176, -0.00293903, -0.00266489, -0.00147682, -0.0140029, 0.435197, 0.240971
877.59052610599997024, -0.0029409, -0.0026658, -0.00147621, -0.0140579, 0.437139, 0.239812
877.62384241100005511, -0.00294199, -0.00266556, -0.00147662, -0.0140864, 0.439514, 0.238121
877.65715873999999985, -0.00294298, -0.00266653, -0.00147754, -0.0141183, 0.441393, 0.236975
877.69047510600000805, -0.00294381, -0.00266844, -0.00148061, -0.014118, 0.441473, 0.236896
877.72379138200005855, -0.00294508, -0.00266795, -0.00147991, -0.0140519, 0.439817, 0.238212
877.75710955400006696, -0.00294721, -0.00266682, -0.00147974, -0.0140034, 0.438452, 0.238986
877.79042410600004587, -0.00294716, -0.00266878, -0.00148691, -0.0140349, 0.439513, 0.238066
877.82374038199998267, -0.00294663, -0.00267015, -0.00149053, -0.0140637, 0.440525, 0.237394
877.85705673999996179, -0.00294641, -0.00267123, -0.00149224, -0.014104, 0.441458, 0.236701
877.89037307299997792, -0.00294702, -0.00266974, -0.00148764, -0.0140971, 0.439819, 0.237809
877.92368996799996239, -0.00294792, -0.00266672, -0.00147973, -0.0140634, 0.437043, 0.23976
877.95715577300006771, -0.00294857, -0.00266532, -0.00147534, -0.0140289, 0.434821, 0.241476
877.99047207299997808, -0.00294912, -0.00266469, -0.00147211, -0.0140261, 0.433545, 0.242499
878.02378841100005502, -0.00294854, -0.00266745, -0.00147491, -0.0140221, 0.435705, 0.24167
878.05710474399995746, -0.00294822, -0.00266847, -0.00147536, -0.0140612, 0.43676, 0.240951
878.09042107799996302, -0.00294921, -0.00266912, -0.00147514, -0.0141067, 0.43702, 0.240709
878.12373741099997915, -0.0029501, -0.00266811, -0.00147339, -0.0140836, 0.434378, 0.241873
878.15705377300002965, -0.00295095, -0.00266659, -0.00147422, -0.0140264, 0.430663, 0.243565
878.19037007300005371, -0.00295097, -0.00266772, -0.00147307, -0.0140975, 0.433702, 0.242307
878.22368641100001696, -0.00295054, -0.00266798, -0.00147307, -0.0141177, 0.435334, 0.241656
878.25700277300006746, -0.00295037, -0.00266864, -0.00147112, -0.0141569, 0.438416, 0.240591
878.29046910600004594, -0.0029512, -0.00266884, -0.0014683, -0.0141979, 0.440156, 0.240062
878.32378750099996978, -0.00295135, -0.00266865, -0.00146833, -0.0142185, 0.439964, 0.239939
878.35710177300006762, -0.00295106, -0.00266841, -0.00146759, -0.014275, 0.440597, 0.239247
878.39041810599997007, -0.00295128, -0.00266865, -0.00146613, -0.0143361, 0.442304, 0.238522
878.42373438200002056, -0.00295201, -0.00266906, -0.00146374, -0.0143853, 0.442779, 0.238261
878.45705077299999175, -0.00295266, -0.00266924, -0.00146238, -0.0143984, 0.441364, 0.238687
878.49036705399998937, -0.00295263, -0.00266943, -0.00146345, -0.0143889, 0.441125, 0.238831
878.52368344000001343, -0.00295239, -0.00266937, -0.00146255, -0.0144134, 0.443734, 0.238279
878.55699974000003749, -0.00295235, -0.00266905, -0.00146352, -0.0143417, 0.445944, 0.238473
878.59031607800000074, -0.0029517, -0.00266799, -0.00146282, -0.0142542, 0.446226, 0.238731
878.62363282000001163, -0.00295178, -0.0026679, -0.00146318, -0.0142219, 0.447128, 0.238894
878.65709873900004823, -0.00295198, -0.00266747, -0.00146302, -0.0141512, 0.447898, 0.239465
878.6904150780000009, -0.00295127, -0.00266729, -0.00146418, -0.0140947, 0.445937, 0.240036
878.72373138700004347, -0.00295148, -0.00266668, -0.00146492, -0.0140392, 0.445735, 0.240377
878.75704771100004109, -0.00295221, -0.00266644, -0.00146463, -0.0140141, 0.446704, 0.24045
878.79036407800003872, -0.00295403, -0.00266826, -0.00146021, -0.0141422, 0.447895, 0.239574
878.82368041100005485, -0.00295382, -0.00266808, -0.00146069, -0.0140861, 0.44813, 0.24013
878.85699672999999166, -0.0029536, -0.00266838, -0.0014618, -0.0140516, 0.447708, 0.24048
878.89031307300001572, -0.00295398, -0.00266684, -0.00146294, -0.0139789, 0.450027, 0.24047
878.92362943900002392, -0.00295582, -0.00266405, -0.0014578, -0.0138676, 0.455093, 0.239981
878.95694577300002948, -0.00295619, -0.00266377, -0.00145909, -0.0138166, 0.454872, 0.240269
878.99041207300001588, -0.00295574, -0.00266554, -0.0014613, -0.0138439, 0.452092, 0.240779
879.02372840600003201, -0.00295709, -0.00266419, -0.00145754, -0.0137861, 0.454458, 0.240589
879.05704474399999526, -0.00295819, -0.00266357, -0.00145633, -0.0137677, 0.454651, 0.240681
879.09036107800000082, -0.00295793, -0.00266437, -0.00145827, -0.013783, 0.453527, 0.240884
879.12367737800002487, -0.00295794, -0.00266396, -0.00145927, -0.0137764, 0.453453, 0.240901
879.15699373899997227, -0.00295992, -0.00266202, -0.00146206, -0.01371, 0.453891, 0.240993
879.19031010599996989, -0.00296079, -0.00266243, -0.00146407, -0.0136879, 0.454154, 0.241139
879.22362643899998602, -0.0029619, -0.00266243, -0.00146419, -0.0136516, 0.454759, 0.241166
879.25694273900001008, -0.00296494, -0.0026613, -0.00146311, -0.0136534, 0.454611, 0.241112
879.29025910600000771, -0.00296509, -0.00266068, -0.00146345, -0.0136549, 0.454717, 0.241049
879.32372543899998618, -0.00296663, -0.00266066, -0.00146276, -0.0136972, 0.454558, 0.240813
879.35704177299999174, -0.00296785, -0.00266088, -0.00146155, -0.0137256, 0.454486, 0.24056
879.39035807699997349, -0.00296817, -0.00266087, -0.00146136, -0.0137104, 0.454457, 0.240569
879.42367443900002399, -0.00296822, -0.00266111, -0.00146081, -0.0137096, 0.454976, 0.240346
879.45699078699999518, -0.00297178, -0.00266086, -0.00145826, -0.0138395, 0.453926, 0.239667
879.4903070770000113, -0.00297428, -0.00266371, -0.00145719, -0.0141549, 0.451742, 0.238836
879.52362340599995605, -0.00297594, -0.00266526, -0.00145692, -0.0142857, 0.451014, 0.238344
879.55693971100004092, -0.00297674, -0.00266519, -0.00145622, -0.0142611, 0.451124, 0.23828
879.5902561059999698, -0.00297688, -0.00266446, -0.00145519, -0.0141606, 0.45256, 0.238355
879.62357240599999386, -0.00297874, -0.00266289, -0.00145354, -0.0140439, 0.452974, 0.23846
879.65688877299999149, -0.00298125, -0.00266516, -0.00145286, -0.0142247, 0.450455, 0.237974
879.69035507299997789, -0.00298157, -0.00266543, -0.00145547, -0.0142841, 0.448063, 0.238062
879.72367140599999402, -0.00298245, -0.00266665, -0.00145724, -0.0143161, 0.446895, 0.238012
879.75698774399995727, -0.00298277, -0.00266828, -0.00146001, -0.0142697, 0.447262, 0.238087
879.79030410600000778, -0.00298304, -0.00266868, -0.00146237, -0.0142773, 0.447431, 0.238052
879.82362041099997896, -0.00298408, -0.0026682, -0.00146408, -0.0143637, 0.446121, 0.237809
879.85693674399999509, -0.00298572, -0.0026684, -0.00146434, -0.0144362, 0.444678, 0.237693
879.89025310600004559, -0.00298692, -0.00266739, -0.00146167, -0.0144602, 0.443675, 0.237578
879.92356940599995596, -0.00298843, -0.0026657, -0.00145852, -0.0145288, 0.442265, 0.237261
879.95688577300006727, -0.00298831, -0.00266454, -0.00145942, -0.0145553, 0.440535, 0.23735
879.99020207299997764, -0.00298827, -0.00266347, -0.00145866, -0.0144706, 0.440042, 0.2379
880.02366843900006188, -0.0029887, -0.00266608, -0.00146024, -0.0143907, 0.441588, 0.237952
880.05698477300006743, -0.00298892, -0.00266793, -0.00146117, -0.0143913, 0.442609, 0.237801
880.09030107299997781, -0.00298902, -0.00266935, -0.0014614, -0.0144594, 0.443062, 0.237417
880.12361740599999393, -0.00298728, -0.002665, -0.00146023, -0.0144845, 0.438637, 0.238211
880.15693373500005237, -0.00298535, -0.00266397, -0.00146214, -0.0144096, 0.436927, 0.239249
880.19025007300001562, -0.00298507, -0.00266399, -0.00146274, -0.0143596, 0.436862, 0.239596
880.22356641099997887, -0.00298642, -0.00266542, -0.00146266, -0.014373, 0.439129, 0.239156
880.25688277300002937, -0.00298688, -0.002666, -0.00146189, -0.0143942, 0.440321, 0.238831
880.2901991060000455, -0.00298698, -0.00266602, -0.0014611, -0.0144144, 0.440923, 0.238621
880.32351541100001668, -0.00298675, -0.00266565, -0.00146024, -0.0144227, 0.44116, 0.238847
880.35683174400003281, -0.00298732, -0.00266642, -0.00145583, -0.0144137, 0.442664, 0.238398
880.39029807300005359, -0.00298815, -0.00266799, -0.0014538, -0.0144047, 0.4441, 0.237797
880.42361443900006179, -0.00298802, -0.00266905, -0.00145836, -0.014384, 0.443396, 0.238349
880.4569307110000409, -0.00298751, -0.00266906, -0.00146167, -0.0143694, 0.442454, 0.23899
880.49024707299997772, -0.00298698, -0.00267, -0.00146445, -0.0143796, 0.442386, 0.239281
880.52356343899998592, -0.00298705, -0.0026704, -0.00146376, -0.0143724, 0.443303, 0.238928
880.55687977700006286, -0.00298692, -0.00267055, -0.00146333, -0.0143418, 0.44384, 0.238499
880.5901961060000076, -0.00298712, -0.00267053, -0.00146329, -0.0143258, 0.443682, 0.238409
880.62351240600003166, -0.00298754, -0.00267046, -0.00146252, -0.0143064, 0.443546, 0.238347
880.65682885800003987, -0.00298733, -0.00267107, -0.00146394, -0.0142929, 0.44309, 0.23856
880.69014507300005334, -0.00298831, -0.00267171, -0.00146206, -0.0143101, 0.442748, 0.23895
880.72361141099997894, -0.00298897, -0.00267232, -0.00146003, -0.0143232, 0.442926, 0.238947
880.75692802000003212, -0.00298867, -0.00267278, -0.00146015, -0.0143247, 0.443419, 0.23886
880.7902440730000535, -0.00298948, -0.00267346, -0.0014608, -0.014329, 0.443532, 0.238968
880.82356041100001676, -0.00299022, -0.00267338, -0.00145867, -0.0143585, 0.444129, 0.238813
880.85687674400003289, -0.00299174, -0.00267394, -0.00145797, -0.0143282, 0.442376, 0.239507
880.8901931059999697, -0.0029929, -0.00267437, -0.00145657, -0.0143209, 0.44203, 0.239628
880.92350948199998584, -0.00299325, -0.00267437, -0.00145624, -0.0143451, 0.441842, 0.239398
880.95682577700006277, -0.00299388, -0.00267399, -0.0014553, -0.014372, 0.441615, 0.23894
880.99014207200002602, -0.00299393, -0.00267389, -0.00145676, -0.0144618, 0.441976, 0.238216
881.02345840600003157, -0.00299464, -0.00267376, -0.0014565, -0.0145524, 0.441639, 0.237644
881.0567747390000477, -0.00299539, -0.00267403, -0.00145635, -0.0146339, 0.44008, 0.237439
881.09024110600000768, -0.00299551, -0.00267365, -0.00145643, -0.0147031, 0.441132, 0.236661
881.12355740600003173, -0.00299506, -0.00267249, -0.00145853, -0.0147293, 0.442188, 0.235925
881.15687378699999499, -0.0029955, -0.00267277, -0.00145776, -0.0147583, 0.44278, 0.235543
881.19019007700001112, -0.00299665, -0.00267404, -0.00145369, -0.0147856, 0.442943, 0.235394
881.22350641100001667, -0.00299717, -0.00267368, -0.00145254, -0.01477, 0.442676, 0.235425
881.2568227440000328, -0.0029974, -0.00267399, -0.00145416, -0.0147271, 0.441927, 0.235815
881.29013908700005686, -0.00299786, -0.00267416, -0.00145671, -0.0146674, 0.441083, 0.236235
881.32345543899998574, -0.00299872, -0.00267509, -0.00145647, -0.0146736, 0.440759, 0.236211
881.35677177200000187, -0.00300032, -0.00267558, -0.00145306, -0.0147052, 0.441231, 0.23573
881.39008810600000743, -0.00300085, -0.00267589, -0.00145266, -0.0147418, 0.442031, 0.235145
881.42355440599999383, -0.00300207, -0.00267401, -0.00145011, -0.0147487, 0.444585, 0.234741
881.45687077200000203, -0.00300363, -0.00267395, -0.00144743, -0.0147508, 0.445245, 0.234708
881.49018707699997321, -0.00300273, -0.00267449, -0.00144935, -0.0147249, 0.443121, 0.235136
881.52350340600003165, -0.00300269, -0.00267526, -0.00145072, -0.0146535, 0.441608, 0.235907
881.55681973900004778, -0.00300314, -0.00267446, -0.00144956, -0.0146097, 0.441766, 0.236124
881.59013604400001896, -0.00300375, -0.0026739, -0.00145131, -0.0146471, 0.444319, 0.235352
881.62345243900006153, -0.00300402, -0.0026745, -0.00145285, -0.0146598, 0.445658, 0.235167
881.65676871499999834, -0.00300482, -0.00267535, -0.00145342, -0.0147164, 0.447017, 0.234643
881.69008507700004884, -0.00300566, -0.00267589, -0.0014518, -0.0147223, 0.446376, 0.234838
881.72340140100004646, -0.00300634, -0.00267608, -0.0014503, -0.0147305, 0.445775, 0.234975
881.75671777200000179, -0.0030075, -0.00267613, -0.00144896, -0.0147898, 0.447472, 0.234107
881.79018410599996969, -0.00300886, -0.00267646, -0.00144823, -0.0147718, 0.447449, 0.234221
881.82350043899998582, -0.00300855, -0.00267714, -0.00144938, -0.0146932, 0.445835, 0.235199
881.85681677200000195, -0.00300968, -0.00267763, -0.00145073, -0.0146157, 0.444949, 0.235989
881.890133072000026, -0.00301027, -0.00267771, -0.00145149, -0.0146242, 0.445383, 0.23574
881.92344943900002363, -0.00301031, -0.00267872, -0.00145102, -0.0146704, 0.446629, 0.235235
881.95676573900004769, -0.0030109, -0.00267954, -0.00145072, -0.0147006, 0.447744, 0.234851
881.99008210600004531, -0.00301151, -0.00267887, -0.0014485, -0.0146976, 0.446987, 0.23506
882.02339838199998212, -0.00301196, -0.00267871, -0.00144611, -0.0147086, 0.445539, 0.235148
882.05671477199996389, -0.00301372, -0.00267869, -0.00144379, -0.0146971, 0.443401, 0.235778
882.09003104400005668, -0.00301569, -0.00267828, -0.00144178, -0.0146553, 0.442264, 0.236336
882.1234974390000616, -0.00301575, -0.00267711, -0.00144247, -0.0145984, 0.441249, 0.236713
882.15681377199996405, -0.00301543, -0.00267684, -0.0014426, -0.0145638, 0.441879, 0.236783
882.1901300719999881, -0.00301448, -0.00267793, -0.00144378, -0.0145955, 0.442754, 0.236531
882.22344643899998573, -0.00301431, -0.00267848, -0.001445, -0.0146052, 0.442545, 0.236725
882.25676277200000186, -0.00301683, -0.00267587, -0.00144486, -0.014488, 0.439826, 0.23767
882.29007907699997304, -0.00301816, -0.00267519, -0.00144489, -0.0144916, 0.440115, 0.237492
882.32339540999998917, -0.0030187, -0.00267474, -0.00144347, -0.014521, 0.44117, 0.237105
882.35671177200003967, -0.00301811, -0.00267694, -0.00144306, -0.0145756, 0.442989, 0.236657
882.39002811000000293, -0.00301788, -0.00267794, -0.00144465, -0.0145994, 0.443412, 0.236357
882.42334443900006136, -0.00301883, -0.00267828, -0.00144587, -0.0145693, 0.442503, 0.236967
882.45681074399999488, -0.00302002, -0.00267686, -0.0014434, -0.0145649, 0.441512, 0.237058
882.49012707200006389, -0.00302455, -0.00267777, -0.00144193, -0.0146806, 0.443322, 0.23602
882.52344341000002714, -0.00302608, -0.00267911, -0.00144192, -0.014713, 0.444398, 0.235644
882.5567597440000327, -0.00302587, -0.00268098, -0.00144112, -0.0147267, 0.444588, 0.235471
882.59007610599996951, -0.00302605, -0.00268203, -0.00144088, -0.0147349, 0.443246, 0.235735
882.62339239100003851, -0.00302733, -0.00268297, -0.00144186, -0.0146816, 0.441354, 0.23664
882.65670877200000177, -0.00302875, -0.00268528, -0.00144342, -0.0146526, 0.440608, 0.237047
882.69002507699997295, -0.00302932, -0.00268522, -0.00144504, -0.0146266, 0.440173, 0.237351
882.72334140999998908, -0.00302913, -0.00268528, -0.00144558, -0.0145892, 0.439396, 0.23764
882.75665777200003959, -0.0030286, -0.00268798, -0.00144695, -0.0146212, 0.439806, 0.237307
882.78997410600004514, -0.00303058, -0.00268772, -0.00144409, -0.0146713, 0.44222, 0.236458
882.82344043900002362, -0.00302993, -0.00268761, -0.00144397, -0.0146303, 0.443726, 0.236529
882.8567567439999948, -0.00303048, -0.0026886, -0.0014453, -0.01466, 0.441054, 0.237257
882.8900731060000453, -0.00302995, -0.00268568, -0.00144789, -0.0145902, 0.437632, 0.23867
882.92338943900006143, -0.0030289, -0.00268559, -0.00145028, -0.0145607, 0.437687, 0.23876
882.9567057389999718, -0.00302978, -0.00268719, -0.0014502, -0.0145525, 0.437781, 0.238707
882.99002212499999587, -0.00302918, -0.00268817, -0.00145135, -0.0145645, 0.438541, 0.2384
883.02333841000006487, -0.00302953, -0.00268997, -0.00145095, -0.0146114, 0.440142, 0.237603
883.05665477200000169, -0.00303049, -0.00269034, -0.0014493, -0.01463, 0.440935, 0.237288
883.08997110600000724, -0.00303261, -0.00268972, -0.001445, -0.0146293, 0.440253, 0.237529
883.12328743900002337, -0.00303329, -0.00269088, -0.00144257, -0.014638, 0.440674, 0.237205
883.15675377200000185, -0.0030352, -0.00269243, -0.00143987, -0.0146176, 0.441251, 0.236929
883.19007010500001797, -0.00303775, -0.00269212, -0.00143705, -0.0146093, 0.440875, 0.237272
883.22338643900002353, -0.00304039, -0.00269127, -0.00143346, -0.0146082, 0.440363, 0.237461
883.25670274399999471, -0.00304483, -0.00269166, -0.00142917, -0.0145852, 0.440186, 0.237615
883.29001904400001877, -0.0030463, -0.00269422, -0.00142684, -0.0145811, 0.440756, 0.237395
883.32333543900006134, -0.00304783, -0.00269531, -0.00142458, -0.0145919, 0.441724, 0.236644
883.35665173899997171, -0.00305095, -0.00269596, -0.00142047, -0.0146028, 0.442068, 0.236416
883.38996810499997991, -0.00305226, -0.00269527, -0.0014188, -0.014586, 0.441964, 0.236547
883.42328443899998547, -0.00305339, -0.00269367, -0.00141518, -0.014582, 0.441115, 0.23677
883.45660073900000953, -0.00305429, -0.00269228, -0.00141436, -0.0145659, 0.440838, 0.236935
883.48991707699997278, -0.0030544, -0.00269233, -0.00141379, -0.0145418, 0.441381, 0.237001
883.52338343899998563, -0.00305349, -0.002694, -0.00141453, -0.0145504, 0.443113, 0.236681
883.55669977200000176, -0.0030533, -0.00269353, -0.00141564, -0.0145664, 0.444084, 0.236304
883.59001610500001789, -0.00305325, -0.00269265, -0.00141616, -0.0145206, 0.442646, 0.236903
883.62333240500004194, -0.00305311, -0.00269203, -0.00141749, -0.0144845, 0.44151, 0.237301
883.6566487390000475, -0.00305321, -0.00269275, -0.00141791, -0.0145248, 0.442675, 0.236977
883.6899651050000557, -0.003053, -0.00269363, -0.0014177, -0.0145593, 0.443912, 0.236553
883.72328140499996607, -0.00305279, -0.00269425, -0.00141831, -0.0145593, 0.444693, 0.236405
883.7565977719999637, -0.00305414, -0.00269349, -0.00141611, -0.0145196, 0.442809, 0.237004
883.78991407199998775, -0.00305517, -0.00269306, -0.00141364, -0.0144925, 0.441721, 0.237325
883.82323043899998538, -0.00305602, -0.00269376, -0.00141236, -0.0145339, 0.442071, 0.237142
883.8566967100000511, -0.00305636, -0.0026952, -0.0014128, -0.0145161, 0.443734, 0.237311
883.89001310499997999, -0.00305621, -0.00269629, -0.00141559, -0.0145307, 0.4446, 0.237032
883.92332943899998554, -0.00305598, -0.00269695, -0.00141805, -0.0145545, 0.44418, 0.237003
883.9566457390000096, -0.00305626, -0.00269753, -0.0014183, -0.0145642, 0.44358, 0.237191
883.9899621050000178, -0.00305908, -0.00269783, -0.0014171, -0.0146196, 0.443799, 0.236787
884.02327840500004186, -0.00306215, -0.00269732, -0.00141549, -0.0146405, 0.443556, 0.236613
884.05659477200003948, -0.0030656, -0.00269613, -0.00141565, -0.0146583, 0.444705, 0.236504
884.08991107700001066, -0.00306787, -0.00269744, -0.0014157, -0.0146633, 0.446049, 0.236011
884.12322743900006117, -0.00306799, -0.0026982, -0.00141674, -0.0146516, 0.447183, 0.235899
884.15654377199996361, -0.00306848, -0.00269821, -0.00141801, -0.0146269, 0.44909, 0.235708
884.18986007700004848, -0.0030696, -0.00269743, -0.00141633, -0.0146064, 0.446453, 0.236107
884.22332643900006133, -0.00306988, -0.00269803, -0.00141605, -0.0146391, 0.444176, 0.236253
884.2566427389999717, -0.00307067, -0.00269906, -0.00141569, -0.0146805, 0.443805, 0.236254
884.2899591049999799, -0.00307191, -0.00269668, -0.00141413, -0.0146774, 0.442322, 0.236248
884.32327540500000396, -0.00307457, -0.0026972, -0.00141457, -0.0146283, 0.442036, 0.236459
884.35659177200000158, -0.00307631, -0.00269773, -0.00141405, -0.0146353, 0.443158, 0.236093
884.38990807699997276, -0.00307602, -0.00269809, -0.0014154, -0.0146358, 0.444836, 0.235841
884.42322440999998889, -0.00307656, -0.00269838, -0.00141612, -0.0146181, 0.444753, 0.235926
884.45654193899997608, -0.00307702, -0.00269892, -0.00141443, -0.0145851, 0.44299, 0.236342
884.48985710500005553, -0.00307746, -0.00269993, -0.00141388, -0.0146458, 0.443559, 0.235737
884.52317341000002671, -0.00307985, -0.00270181, -0.00141082, -0.0146186, 0.44128, 0.236521
884.55663977200003956, -0.00308153, -0.00270119, -0.00141003, -0.0145968, 0.43976, 0.237134
884.58995610500005569, -0.00308306, -0.00270106, -0.00141055, -0.014581, 0.439188, 0.237551
884.62327240499996606, -0.00308501, -0.0027031, -0.00141049, -0.0145491, 0.438921, 0.237979
884.65658877199996368, -0.0030866, -0.00270905, -0.00141114, -0.0145694, 0.439583, 0.237848
884.68990507199998774, -0.0030852, -0.00271011, -0.00141272, -0.014565, 0.439855, 0.237645
884.72322141000006468, -0.0030836, -0.00271204, -0.0014151, -0.0145434, 0.440299, 0.237355
884.7565377720000015, -0.00308497, -0.00271264, -0.00141351, -0.0145458, 0.441135, 0.237106
884.78985410500001763, -0.00308563, -0.00271327, -0.00141359, -0.0145583, 0.441542, 0.237092
884.82317044299998088, -0.00308691, -0.00271401, -0.00141325, -0.0145274, 0.441752, 0.237298
884.85648677200003931, -0.00308777, -0.00271529, -0.00141113, -0.0144999, 0.442326, 0.23696
884.88980310500005544, -0.00308724, -0.00271556, -0.00141195, -0.0145191, 0.44259, 0.236677
884.92326937699999689, -0.00308725, -0.00271603, -0.00141048, -0.0145328, 0.442259, 0.237051
884.9565857390000474, -0.00308731, -0.00271591, -0.00141185, -0.0145135, 0.442051, 0.237492
884.9899021050000556, -0.00308734, -0.00271603, -0.00141236, -0.0145029, 0.442042, 0.237744
885.02321732999996584, -0.00308712, -0.00271455, -0.00141427, -0.01447, 0.441873, 0.237268
885.05653193099999498, -0.00308704, -0.00271385, -0.00141426, -0.0144572, 0.441987, 0.236537
885.08984541799998169, -0.00308666, -0.0027135, -0.00141447, -0.0144381, 0.441945, 0.236247
885.12315945199998168, -0.00308644, -0.0027135, -0.00141692, -0.0144385, 0.441944, 0.236253
885.1564734869999711, -0.00308634, -0.00271274, -0.00141764, -0.0144289, 0.440783, 0.23674
885.18978752099997109, -0.0030864, -0.00271175, -0.00141722, -0.0144621, 0.439742, 0.236965
885.22310152199997901, -0.00308708, -0.00271144, -0.00141623, -0.0144859, 0.440505, 0.236412
885.2565655800000286, -0.00308771, -0.00271232, -0.00141804, -0.0145223, 0.441143, 0.236393
885.28987958599998365, -0.00308846, -0.00271309, -0.0014193, -0.014553, 0.44158, 0.236588
885.32319360600001801, -0.00308932, -0.00271277, -0.00141842, -0.0145853, 0.441813, 0.236251
885.35650765000002593, -0.00308996, -0.00271222, -0.00141901, -0.0146552, 0.441819, 0.23588
885.38982171800000742, -0.00309088, -0.00271268, -0.0014187, -0.0147129, 0.441778, 0.235782
885.42313571900001534, -0.00309068, -0.00271342, -0.00141784, -0.0147526, 0.442066, 0.235497
885.45644978699999683, -0.0030912, -0.00271145, -0.00141949, -0.0147333, 0.442045, 0.235069
885.48976382099999682, -0.00309126, -0.00271003, -0.0014185, -0.0146269, 0.443057, 0.23508
885.5230778799999598, -0.00309056, -0.00271048, -0.00141499, -0.0146024, 0.443725, 0.234799
885.55639189500004704, -0.00308974, -0.00271355, -0.00141551, -0.014749, 0.444253, 0.234746
885.58985588100006225, -0.00309018, -0.00271747, -0.00141667, -0.0148624, 0.442202, 0.235812
885.62316994900004374, -0.00309048, -0.00271763, -0.00141784, -0.0148754, 0.441442, 0.236162
885.65648398400003316, -0.00309078, -0.00271779, -0.00141601, -0.0147999, 0.442945, 0.235911
885.68979801800003315, -0.00309151, -0.002715, -0.00141381, -0.0146787, 0.443614, 0.235111
885.72311205300002257, -0.0030915, -0.00271466, -0.0014122, -0.0146511, 0.443664, 0.234991
885.75642608700002256, -0.00309193, -0.00271495, -0.00141196, -0.0146407, 0.443899, 0.235182
885.78974012200001198, -0.00309248, -0.00271662, -0.00140874, -0.0146784, 0.44466, 0.235334
885.82305415600001197, -0.00309208, -0.0027182, -0.00140449, -0.0146841, 0.445184, 0.235317
885.85636819100000139, -0.00309186, -0.00271835, -0.0014038, -0.0146309, 0.445455, 0.235488
885.88968222500000138, -0.00309133, -0.00271879, -0.00140614, -0.0145849, 0.445731, 0.235819
885.9229962599999908, -0.00309084, -0.00271941, -0.00140787, -0.0145634, 0.445928, 0.236246
885.95646024999996371, -0.00309051, -0.00271965, -0.00140779, -0.0145417, 0.445616, 0.236558
885.98977428500006681, -0.00309103, -0.00271791, -0.00140803, -0.0144592, 0.445557, 0.236569
886.02308939900001405, -0.00309173, -0.00271687, -0.0014067, -0.0143705, 0.446156, 0.236503
886.05640574300002754, -0.00309269, -0.0027167, -0.00140584, -0.0143994, 0.446157, 0.236464
886.08972210499996436, -0.00309415, -0.00271593, -0.0014024, -0.014349, 0.446426, 0.23649
886.12303843799998049, -0.00309365, -0.00271836, -0.0014048, -0.0144966, 0.446536, 0.236409
886.15635480000003099, -0.00309183, -0.00272362, -0.00140727, -0.0147383, 0.446249, 0.236096
886.18967110500000217, -0.00309166, -0.00272608, -0.00140773, -0.0148634, 0.445928, 0.235911
886.22298740500002623, -0.00309211, -0.00272625, -0.00140794, -0.0148579, 0.44581, 0.236057
886.25630373800004236, -0.0030923, -0.00272648, -0.00140584, -0.0148846, 0.446004, 0.235952
886.28977007200001026, -0.00309289, -0.00272699, -0.0014047, -0.0149606, 0.445726, 0.235692
886.32308640500002639, -0.00309447, -0.00272976, -0.00140807, -0.0151852, 0.445597, 0.235399
886.35640273800004252, -0.00309539, -0.00272978, -0.00140782, -0.0151718, 0.445318, 0.235506
886.38971910500004014, -0.00309517, -0.00272964, -0.00140789, -0.0151411, 0.445362, 0.235566
886.42303537600002983, -0.00309502, -0.00272833, -0.00140625, -0.0150677, 0.445788, 0.235706
886.45635174300002745, -0.00309495, -0.00272736, -0.00140568, -0.0150157, 0.44602, 0.235815
886.48966810499996427, -0.00309521, -0.00272709, -0.00140514, -0.0150398, 0.445689, 0.235691
886.52298438100001476, -0.00309552, -0.00272759, -0.00140528, -0.0151671, 0.445582, 0.235338
886.55630077199998595, -0.0030959, -0.00272626, -0.00140557, -0.0151142, 0.445052, 0.235371
886.58961710500000208, -0.00309713, -0.00272564, -0.00140476, -0.0150896, 0.444699, 0.235258
886.62293340999997326, -0.00309714, -0.00272585, -0.00140514, -0.0150788, 0.444749, 0.235218
886.65639973800000462, -0.00309776, -0.00272516, -0.00140557, -0.0150462, 0.445011, 0.235101
886.68971607599996787, -0.00309875, -0.00272442, -0.00140368, -0.0150535, 0.445034, 0.234721
886.72303243800001837, -0.00310012, -0.00272259, -0.00139926, -0.0150691, 0.444061, 0.234215
886.75634873800004243, -0.0030998, -0.00272241, -0.00139882, -0.0152018, 0.442936, 0.233645
886.78966510500004006, -0.00310088, -0.00272375, -0.00139903, -0.0153133, 0.442321, 0.233542
886.82298143800005619, -0.00310201, -0.0027239, -0.00140152, -0.0153034, 0.441854, 0.233692
886.85629777200006174, -0.00310241, -0.00272371, -0.00140092, -0.0152084, 0.442584, 0.233932
886.88961440000002767, -0.00310227, -0.00272396, -0.0014018, -0.0151797, 0.442697, 0.234003
886.92293040499998824, -0.00310073, -0.00272448, -0.00140163, -0.0152417, 0.443589, 0.233457
886.95624673800000437, -0.00310037, -0.00272764, -0.00140424, -0.0155359, 0.443249, 0.233116
886.98971307199997227, -0.00310084, -0.00272683, -0.00140372, -0.015496, 0.443208, 0.233308
887.02302943799998047, -0.00310151, -0.0027262, -0.0014056, -0.0152992, 0.443483, 0.233956
887.05634573800000453, -0.00310243, -0.00272489, -0.0014037, -0.0151709, 0.444471, 0.234145
887.08966207200001008, -0.00310301, -0.00272418, -0.00140242, -0.0150836, 0.444781, 0.234374
887.12297841899999185, -0.00310393, -0.00272328, -0.00140013, -0.0150456, 0.444893, 0.234538
887.15629473800004234, -0.00310496, -0.00272094, -0.00139512, -0.0150279, 0.444335, 0.234789
887.18961110500003997, -0.00310583, -0.00272027, -0.00139475, -0.0150051, 0.44437, 0.235068
887.2229274380000561, -0.00310586, -0.00272172, -0.00139486, -0.0151601, 0.444336, 0.234874
887.25624378600002728, -0.00310656, -0.00272154, -0.00139429, -0.0151957, 0.444141, 0.234869
887.2895628480000596, -0.00310686, -0.00272141, -0.00139367, -0.0151963, 0.443986, 0.234757
887.32287643799998023, -0.00310736, -0.00272138, -0.00139347, -0.0150721, 0.443677, 0.234987
887.35634273799996663, -0.00310765, -0.0027217, -0.00139383, -0.0149667, 0.443289, 0.235192
887.38965910499996426, -0.0031082, -0.00272147, -0.00139225, -0.014911, 0.442908, 0.235124
887.42297541000004912, -0.00310862, -0.00272196, -0.00139006, -0.0149144, 0.443196, 0.234971
887.45629170999995949, -0.00310858, -0.00272206, -0.00139114, -0.0150139, 0.443637, 0.234862
887.48960804800003643, -0.00310867, -0.00272209, -0.00139143, -0.0150953, 0.443998, 0.234788
887.5229244380000182, -0.00310994, -0.00272188, -0.00138906, -0.0150775, 0.444133, 0.234882
887.55624071900001582, -0.00311024, -0.00272142, -0.00138962, -0.0150607, 0.443758, 0.235196
887.58955707200004781, -0.00310945, -0.00272081, -0.00139051, -0.0150091, 0.443573, 0.235409
887.62287340500006394, -0.00310953, -0.00272076, -0.00139036, -0.0149902, 0.443463, 0.235269
887.65618977099995845, -0.00310897, -0.00272079, -0.00139146, -0.0150339, 0.443396, 0.234905
887.68965607100005855, -0.00310943, -0.0027204, -0.00139193, -0.0151115, 0.442899, 0.234704
887.72297241000001122, -0.00310961, -0.00271935, -0.00139099, -0.0151119, 0.441983, 0.235097
887.75628874300002735, -0.0031093, -0.00271928, -0.00139221, -0.0150686, 0.442113, 0.235318
887.78960510499996417, -0.00310829, -0.00272013, -0.00139241, -0.0150679, 0.442896, 0.23512
887.82292141000004904, -0.00310967, -0.00271952, -0.00139171, -0.0149752, 0.442568, 0.235158
