time, bias_gyr_x, bias_gyr_y, bias_gyr_z, bias_acc_x, bias_acc_y, bias_acc_z
-1, 0, 0, 0, 0, 0, 0
55498.885240597002849, 0, 0, 0, 0, 0, 0
55498.918556931006606, 0.174914, 0.0484176, 0.0252486, 0.000372558, -0.00193171, -0.00227149
55498.951873335005075, 0.185063, 0.0889281, 0.0347689, -0.0136082, 0.00057585, -0.0094388
55498.985189597005956, 0.18773, 0.0970873, 0.0350597, -0.031417, -0.00360554, -0.0232756
55499.018506035004975, 0.181645, 0.103043, 0.0365621, -0.0302585, -0.00353506, -0.0216787
55499.051822569002979, 0.186702, 0.09755, 0.0384729, -0.00222947, -0.00168253, -0.00199531
55499.085139168004389, 0.182944, 0.0980797, 0.0374674, 0.0283331, -0.00290906, 0.0146282
55499.118605703006324, 0.173942, 0.088422, 0.045661, 0.0824378, -0.00474193, 0.0402414
55499.15192230300454, 0.173876, 0.0747053, 0.0488529, 0.222026, -0.00568356, 0.106918
55499.185238836005738, 0.166777, 0.0653944, 0.0473895, 0.322804, -0.00526732, 0.162691
55499.218555407009262, 0.159805, 0.0688452, 0.0451215, 0.411837, -0.00549839, 0.220723
55499.251872002008895, 0.153178, 0.0704588, 0.0396125, 0.48313, -0.00548639, 0.258306
55499.285188540008676, 0.145414, 0.0775253, 0.0392574, 0.480471, -0.00775209, 0.278493
55499.318505135008309, 0.140654, 0.0853408, 0.0362585, 0.486557, -0.0104175, 0.295575
55499.351821702010056, 0.140994, 0.0847473, 0.0357207, 0.493911, -0.0106988, 0.298686
55499.385138268007722, 0.139024, 0.084418, 0.035209, 0.502295, -0.00625481, 0.290488
55499.418454802005726, 0.139969, 0.0807353, 0.0379849, 0.533685, 0.0041451, 0.282071
55499.45192140700965, 0.140414, 0.0799096, 0.0375698, 0.550716, 0.0112977, 0.273843
55499.485237912005687, 0.140503, 0.0782248, 0.0388533, 0.541281, 0.0100451, 0.277195
55499.518554502006737, 0.140845, 0.0843461, 0.0379499, 0.521413, 0.000411107, 0.286452
55499.551871069008484, 0.138292, 0.0815986, 0.0387436, 0.455202, -0.0240409, 0.314052
55499.58518763500615, 0.133736, 0.0800823, 0.0402502, 0.421521, -0.0342344, 0.327543
55499.618504235004366, 0.129572, 0.078862, 0.0405783, 0.394243, -0.0486183, 0.350247
55499.651820821003639, 0.122146, 0.0776996, 0.0417619, 0.423344, -0.0390828, 0.35369
55499.685137335007312, 0.113343, 0.0766142, 0.0429972, 0.420386, -0.0289019, 0.351682
55499.71845390600356, 0.113095, 0.07609, 0.0431578, 0.420167, -0.024962, 0.352933
55499.751770468006725, 0.111862, 0.0762529, 0.0446945, 0.399109, -0.039755, 0.372036
55499.785087068004941, 0.108574, 0.0772033, 0.044035, 0.35546, -0.067493, 0.408931
55499.818553607008653, 0.108885, 0.0772809, 0.0443556, 0.342686, -0.0748838, 0.420651
55499.851870807004161, 0.106852, 0.0718234, 0.0455686, 0.323871, -0.0879848, 0.448882
55499.885186735009484, 0.106114, 0.0665577, 0.0450109, 0.327745, -0.0951635, 0.460955
55499.918503335007699, 0.106179, 0.0641611, 0.0406159, 0.330511, -0.102134, 0.466231
55499.951819902009447, 0.105567, 0.0632963, 0.0406022, 0.331397, -0.11008, 0.471733
55499.985136411007261, 0.105167, 0.0623773, 0.0411112, 0.328567, -0.119407, 0.480856
55500.018452931006323, 0.104236, 0.0601869, 0.0394999, 0.322781, -0.13484, 0.489765
55500.051769259007415, 0.104156, 0.0582845, 0.0392033, 0.315506, -0.147263, 0.503473
55500.08508559200709, 0.104305, 0.0560837, 0.0369818, 0.313849, -0.156903, 0.499957
55500.118401926003571, 0.103175, 0.0520723, 0.0366803, 0.291167, -0.17863, 0.523011
55500.151868292006839, 0.102631, 0.0517544, 0.0360713, 0.280423, -0.18369, 0.537472
55500.18518462600332, 0.101811, 0.0488122, 0.0362843, 0.266734, -0.199224, 0.554005
55500.218500959002995, 0.100628, 0.0462155, 0.0365194, 0.254411, -0.21192, 0.56947
55500.251817292009946, 0.10074, 0.0457435, 0.0366419, 0.242703, -0.221692, 0.584507
55500.285133626006427, 0.0993545, 0.0437721, 0.0362503, 0.230477, -0.242585, 0.594088
55500.318449926009635, 0.0977719, 0.0406779, 0.0362228, 0.22061, -0.260682, 0.60302
55500.35176625900931, 0.0967436, 0.0349363, 0.0348731, 0.213318, -0.276243, 0.607483
55500.385082564003824, 0.0968148, 0.0318332, 0.0339524, 0.2053, -0.295402, 0.611631
55500.418398930007243, 0.0968502, 0.0294667, 0.0335618, 0.196454, -0.316666, 0.612522
55500.451715292008885, 0.0961377, 0.0276593, 0.0325559, 0.191307, -0.335627, 0.616636
55500.485031592004816, 0.0955476, 0.0254945, 0.0310433, 0.184961, -0.358394, 0.616752
55500.518497930002923, 0.0920276, 0.0238146, 0.0309004, 0.177278, -0.343561, 0.630605
55500.551814292004565, 0.0921672, 0.0216554, 0.0303388, 0.162599, -0.371157, 0.640028
55500.585130597006355, 0.0923551, 0.0192192, 0.0304325, 0.156606, -0.409069, 0.639296
55500.618446959007997, 0.0903631, 0.0169035, 0.0298454, 0.146753, -0.421828, 0.651639
55500.651763292007672, 0.0891259, 0.0155461, 0.0298393, 0.139105, -0.441264, 0.662681
55500.685079592003603, 0.085908, 0.0121619, 0.0305975, 0.132459, -0.45255, 0.672702
55500.718395959003828, 0.0825709, 0.00943842, 0.0323396, 0.13364, -0.429703, 0.674115
55500.751712292003504, 0.0792911, 0.00649723, 0.0318465, 0.131048, -0.413289, 0.679206
55500.785028592006711, 0.0786537, 0.00543026, 0.0315466, 0.127697, -0.435484, 0.680578
55500.818344959006936, 0.0790641, 0.00466196, 0.0316599, 0.126203, -0.445478, 0.678572
55500.851811235006608, 0.0784748, 0.0042253, 0.0307415, 0.122075, -0.461473, 0.687917
55500.885127626002941, 0.0786243, 0.00414975, 0.0297992, 0.12395, -0.447085, 0.686778
55500.918443926006148, 0.0777421, 0.00349383, 0.0289157, 0.117664, -0.460061, 0.698332
55500.951760292009567, 0.0767564, 0.00269799, 0.0272219, 0.1145, -0.470074, 0.704783
55500.985076626006048, 0.0757446, 0.00216064, 0.0265301, 0.118454, -0.44552, 0.695555
55501.018392930003756, 0.0756092, 0.00197916, 0.025368, 0.115805, -0.442341, 0.703203
55501.051709264007513, 0.0751659, 0.00279102, 0.0246359, 0.118263, -0.422183, 0.701021
55501.085025597007188, 0.0737729, 0.00311003, 0.0237311, 0.116264, -0.408093, 0.705605
55501.118341959008831, 0.0736753, 0.00424138, 0.0230571, 0.107511, -0.449026, 0.727493
55501.151658292008506, 0.073384, 0.00431524, 0.0226663, 0.104436, -0.465802, 0.736044
55501.18497459700302, 0.0733361, 0.00397827, 0.0226234, 0.102299, -0.476167, 0.739686
55501.218440926008043, 0.0733333, 0.00354264, 0.0231424, 0.102898, -0.495341, 0.734014
55501.251757292004186, 0.0736294, 0.00285072, 0.0248877, 0.111895, -0.497993, 0.702494
55501.285073597005976, 0.0729753, 0.00225953, 0.0263446, 0.126058, -0.458326, 0.661546
55501.318389959007618, 0.0732427, 0.0039745, 0.026382, 0.130397, -0.427233, 0.659368
55501.351706292007293, 0.0732186, 0.00437521, 0.0258837, 0.128591, -0.417394, 0.669299
55501.385022597009083, 0.0725123, 0.00398815, 0.0250731, 0.126091, -0.399535, 0.679554
55501.418338959003449, 0.0717133, 0.00306454, 0.0246078, 0.122427, -0.411695, 0.685076
55501.451655330005451, 0.0703557, 0.00272927, 0.0240428, 0.119324, -0.438467, 0.68986
55501.484971625010076, 0.0703148, 0.00221372, 0.0239048, 0.116696, -0.450465, 0.691743
55501.518287925006007, 0.0701228, 0.00121058, 0.0236052, 0.113087, -0.460185, 0.694001
55501.551754264008196, 0.0687437, 0.000301316, 0.0232764, 0.114656, -0.443594, 0.687677
55501.585070625005756, 0.0671641, -0.000766568, 0.0230834, 0.116963, -0.446373, 0.674117
55501.618386930007546, 0.0663881, -0.00116827, 0.0227516, 0.116191, -0.456312, 0.673022
55501.651703292009188, 0.065345, -0.00157691, 0.0219487, 0.112425, -0.467953, 0.681249
55501.685019587006536, 0.0643565, -0.00161279, 0.0215543, 0.11249, -0.466232, 0.68227
55501.718335930003377, 0.0656912, -0.00173594, 0.0219958, 0.111561, -0.477911, 0.679958
55501.751652292005019, 0.0644816, -0.00147831, 0.0219173, 0.115309, -0.475344, 0.671962
55501.784968673004187, 0.0628551, -0.000380087, 0.0226655, 0.129545, -0.469114, 0.641153
55501.818284930006485, 0.0624231, -0.000577316, 0.0224691, 0.128839, -0.467967, 0.641977
55501.851601292008127, 0.0618179, -0.000659053, 0.0219149, 0.126683, -0.46531, 0.649247
55501.88506762500765, 0.0639285, -0.000618635, 0.0212369, 0.118353, -0.45272, 0.67879
55501.918383925003582, 0.0639394, -0.000429293, 0.0215711, 0.120335, -0.455771, 0.673614
55501.951700264005922, 0.0641624, -0.00142696, 0.0222909, 0.122856, -0.445959, 0.657819
55501.985016940008791, 0.0640727, -0.00166688, 0.0224423, 0.124024, -0.451456, 0.649295
55502.018332925006689, 0.0641462, -0.00183179, 0.022427, 0.124225, -0.453062, 0.646193
55502.05164925900317, 0.0634218, -0.00286254, 0.022669, 0.130164, -0.468436, 0.613355
55502.084965592010121, 0.0633265, -0.00326391, 0.0228935, 0.133683, -0.478404, 0.596431
55502.118281925009796, 0.0634494, -0.00319874, 0.0227154, 0.132788, -0.474363, 0.600192
55502.151598263008054, 0.0642227, -0.00249656, 0.0225954, 0.128516, -0.460275, 0.618372
55502.184914597004536, 0.0644264, -0.00247172, 0.0223479, 0.128757, -0.457108, 0.617114
55502.218230930004211, 0.064169, -0.00280611, 0.0227368, 0.131722, -0.483567, 0.606069
55502.251697263003734, 0.0642324, -0.00282102, 0.0226065, 0.132134, -0.475583, 0.603854
55502.285013592008909, 0.0644602, -0.00245232, 0.0223449, 0.126837, -0.43086, 0.615896
55502.318329897003423, 0.0649166, -0.00256236, 0.0223811, 0.132055, -0.430844, 0.59896
55502.351646292008809, 0.064937, -0.00252503, 0.0225499, 0.134216, -0.474357, 0.59951
55502.38496259200474, 0.0650202, -0.00226148, 0.0226458, 0.131632, -0.499133, 0.612377
55502.418278959004965, 0.064503, -0.00239102, 0.0224496, 0.144668, -0.501571, 0.569565
55502.45159529200464, 0.0641793, -0.00240281, 0.0222976, 0.158194, -0.479726, 0.518627
55502.484911625004315, 0.0636348, -0.00242085, 0.0220691, 0.15647, -0.446855, 0.514389
55502.518227959008073, 0.0634282, -0.00249489, 0.0219277, 0.150726, -0.41383, 0.524845
55502.551544263005781, 0.062855, -0.0027203, 0.0217505, 0.165751, -0.384308, 0.467645
55502.585010630005854, 0.0625135, -0.00274927, 0.0215502, 0.150902, -0.349307, 0.506504
55502.618326959003753, 0.0630181, -0.00257845, 0.0216451, 0.136199, -0.346908, 0.555019
55502.651643268007319, 0.0626668, -0.00266837, 0.0215112, 0.147854, -0.307081, 0.504355
55502.684959625003103, 0.0628466, -0.00242758, 0.0214965, 0.138347, -0.318442, 0.536777
55502.718275901002926, 0.0629414, -0.00227451, 0.0214695, 0.12484, -0.322651, 0.582531
55502.751592263004568, 0.0626467, -0.00225834, 0.0213465, 0.132287, -0.286392, 0.546483
55502.78490862500621, 0.0623234, -0.00245609, 0.0212879, 0.134561, -0.253432, 0.530707
55502.818224959009967, 0.0619259, -0.00260929, 0.0211062, 0.126509, -0.220981, 0.54881
55502.851541292009642, 0.0621808, -0.00259358, 0.0210864, 0.11514, -0.190163, 0.577377
55502.884857625009317, 0.0618429, -0.00230431, 0.0209041, 0.118328, -0.18924, 0.562895
55502.918173959005799, 0.0612677, -0.00221735, 0.0206636, 0.122216, -0.169668, 0.542434
55502.951640292005322, 0.0606077, -0.00214293, 0.0204312, 0.121318, -0.14845, 0.535545
55502.98495659200853, 0.0598692, -0.00225784, 0.0202166, 0.122029, -0.130676, 0.527812
55503.018272959008755, 0.0588934, -0.00230174, 0.0199005, 0.120067, -0.100046, 0.523956
55503.05158929200843, 0.0572389, -0.00225265, 0.0193508, 0.119179, -0.0756553, 0.517353
55503.084905592004361, 0.0560269, -0.00230618, 0.0189712, 0.122311, -0.0641964, 0.503664
55503.118221959004586, 0.0559608, -0.00236982, 0.0190025, 0.123718, -0.0596247, 0.499784
55503.151538292004261, 0.0551145, -0.00231255, 0.018802, 0.12559, -0.0381094, 0.487383
55503.184854625003936, 0.0544459, -0.00230246, 0.0186589, 0.125865, -0.025515, 0.482728
55503.218170959007693, 0.0536476, -0.00227836, 0.0184348, 0.126168, -0.0187444, 0.47861
55503.251487235007517, 0.0526017, -0.00227034, 0.0181809, 0.126553, -0.00679106, 0.473688
55503.284953625006892, 0.0518465, -0.00215265, 0.0178476, 0.128436, -0.0058306, 0.464963
55503.318269930008682, 0.0516129, -0.00203743, 0.017764, 0.131524, -0.00460524, 0.456666
55503.351586292003049, 0.0512231, -0.00189018, 0.01759, 0.133803, -0.00257132, 0.448542
55503.38490262501, 0.0510585, -0.00184744, 0.0174359, 0.135237, -0.00460111, 0.444984
55503.418218897008046, 0.050744, -0.00182489, 0.0173406, 0.136808, -0.00510439, 0.441327
55503.451535292006156, 0.0503293, -0.00179713, 0.0172744, 0.138872, -0.00465811, 0.435928
55503.484851625005831, 0.0494282, -0.00150922, 0.0169732, 0.142035, -0.0059237, 0.42541
55503.518167959009588, 0.0485862, -0.00135099, 0.0166148, 0.143971, -0.00794553, 0.419697
55503.55148425900552, 0.0472974, -0.000878073, 0.0161576, 0.149192, -0.0153891, 0.406319
55503.584800625008938, 0.0466905, -0.000869324, 0.0158999, 0.150405, -0.0179073, 0.404474
55503.618116897006985, 0.0459605, -0.000676349, 0.0155567, 0.151615, -0.02337, 0.402545
55503.651583258004393, 0.045555, -0.000598574, 0.0153561, 0.152387, -0.0270282, 0.401974
55503.684899625004618, 0.0451726, -0.000559307, 0.0152834, 0.153642, -0.0288543, 0.399077
55503.718215930006409, 0.0445968, -0.000320415, 0.0150849, 0.15709, -0.0391516, 0.394349
55503.751532292008051, 0.0442322, -0.00014039, 0.0148712, 0.157934, -0.0456709, 0.394628
55503.784848625007726, 0.0436862, 2.88597e-05, 0.0143946, 0.155256, -0.0501524, 0.402774
55503.818164935008099, 0.0426442, 0.000652834, 0.0131902, 0.152387, -0.075077, 0.423147
55503.851481258003332, 0.0420887, 0.00117495, 0.0123901, 0.148206, -0.0900481, 0.440054
55503.884797597005672, 0.0417172, 0.00129723, 0.0120963, 0.148048, -0.0975885, 0.445005
55503.918113930005347, 0.0415126, 0.00139325, 0.0119469, 0.147109, -0.10017, 0.448069
55503.951430263005022, 0.0407111, 0.00212325, 0.0115004, 0.150008, -0.129973, 0.452742
55503.984896625006513, 0.0404755, 0.00239311, 0.0113318, 0.149974, -0.138656, 0.45559
55504.018215577008959, 0.0408125, 0.00200451, 0.0110507, 0.141115, -0.115759, 0.470551
55504.051529292009945, 0.0411081, 0.0016966, 0.0109282, 0.134817, -0.0960904, 0.478753
55504.084845592005877, 0.0411118, 0.00161903, 0.01076, 0.131029, -0.0883976, 0.48517
55504.118161897007667, 0.0412883, 0.00123514, 0.0105485, 0.123736, -0.0652992, 0.495044
55504.151478258005227, 0.0414581, 0.000739184, 0.0103122, 0.112954, -0.0283635, 0.504722
55504.184794625005452, 0.0414302, 0.000779866, 0.0101417, 0.109233, -0.0239892, 0.511363
55504.218110958005127, 0.0413688, 0.000804841, 0.0102301, 0.109331, -0.0201298, 0.50585
55504.251427258008334, 0.0412966, 0.00100491, 0.0100958, 0.108595, -0.0284246, 0.511722
55504.284743625008559, 0.0410733, 0.000822508, 0.0101481, 0.107678, -0.0157962, 0.504998
55504.318059958008234, 0.0409183, 0.000708689, 0.0100924, 0.105731, -0.00753355, 0.504767
55504.351526292004564, 0.0408429, 0.000594708, 0.0100542, 0.104172, -0.000590651, 0.505082
55504.384842625004239, 0.0408202, 0.000371811, 0.0101081, 0.101909, 0.0147881, 0.501424
55504.418158925007447, 0.0408195, 0.000354933, 0.0100405, 0.100313, 0.0165025, 0.505003
55504.451475258007122, 0.0404908, 0.000108044, 0.010092, 0.0998459, 0.0298866, 0.496547
55504.484791592003603, 0.040336, 3.06052e-05, 0.0100511, 0.0982409, 0.035053, 0.496512
55504.518107958007022, 0.0401761, 1.32443e-05, 0.0101354, 0.0989906, 0.0374456, 0.490044
55504.551424263008812, 0.0401912, 0.000125351, 0.0102475, 0.1006, 0.0341537, 0.484677
55504.584740630009037, 0.0404363, 0.000149196, 0.0104168, 0.102439, 0.0351404, 0.479007
55504.618056930004968, 0.0405681, 9.04174e-05, 0.0105001, 0.103016, 0.03883, 0.476369
55504.65137329200661, 0.0407694, 0.000240913, 0.0106911, 0.104266, 0.0354206, 0.471089
55504.684839625006134, 0.0408348, 0.000168104, 0.0106859, 0.10405, 0.0388214, 0.471716
55504.718155958005809, 0.0410458, 0.000207109, 0.0109328, 0.107172, 0.042275, 0.461418
55504.751472258009017, 0.0411535, 0.00018464, 0.0110186, 0.108479, 0.04532, 0.457409
55504.784788625009242, 0.0416926, 0.000800244, 0.011425, 0.113617, 0.028585, 0.445875
55504.818104930003756, 0.0419131, 0.000888443, 0.0116056, 0.115035, 0.0290418, 0.440987
55504.851421292005398, 0.041942, 0.000897385, 0.0116227, 0.115107, 0.0290134, 0.440709
55504.884737592008605, 0.0420758, 0.00111722, 0.0117562, 0.116732, 0.023641, 0.436948
55504.918053930006863, 0.0421479, 0.00131226, 0.0118836, 0.120198, 0.0258578, 0.427628
55504.951370263006538, 0.0423275, 0.0012039, 0.0119981, 0.120485, 0.0344783, 0.424633
55504.98468662500818, 0.0422085, 0.00159928, 0.0122077, 0.124677, 0.0305113, 0.413523
55505.018152930009819, 0.0423085, 0.00179569, 0.0123615, 0.126686, 0.0310499, 0.407979
55505.051469292004185, 0.0423466, 0.00181693, 0.0123813, 0.126779, 0.0308826, 0.407773
55505.08478562500386, 0.0423119, 0.00224615, 0.0125553, 0.129371, 0.0262023, 0.401977
55505.118101958003535, 0.042361, 0.00245984, 0.0126407, 0.130007, 0.0216583, 0.401171
55505.151418263005326, 0.0422732, 0.00280413, 0.0128052, 0.131696, 0.0199984, 0.397675
55505.184734592003224, 0.0423097, 0.00313026, 0.0130073, 0.132967, 0.0204937, 0.395417
55505.218050958006643, 0.0419736, 0.00332683, 0.0129724, 0.134112, 0.0217034, 0.393336
55505.251367292003124, 0.0415517, 0.00346728, 0.0129562, 0.134248, 0.0220444, 0.394266
55505.284683625010075, 0.041601, 0.00345973, 0.0130544, 0.133332, 0.0210916, 0.397159
55505.317999925006006, 0.0415933, 0.00349246, 0.0131101, 0.132563, 0.0207155, 0.399734
55505.351316292006231, 0.0416387, 0.0035274, 0.0132246, 0.130953, 0.0192461, 0.404145
55505.384782592009287, 0.0416909, 0.00355194, 0.0133109, 0.129906, 0.0171392, 0.405981
55505.41809895800543, 0.041984, 0.00347044, 0.0133792, 0.131009, 0.0132442, 0.399448
55505.451415292009187, 0.0421327, 0.00346055, 0.0133911, 0.132282, 0.0111849, 0.394112
55505.484731596006895, 0.0419636, 0.00348078, 0.0133037, 0.133372, 0.00984061, 0.389642
55505.518047930003377, 0.0418345, 0.00347763, 0.0132472, 0.13431, 0.00833172, 0.386041
55505.551364263003052, 0.0417654, 0.0034939, 0.0132164, 0.134117, 0.00836772, 0.386978
55505.584680596010003, 0.0416598, 0.00350278, 0.0131348, 0.135608, 0.00749796, 0.382226
55505.617996925007901, 0.041355, 0.00348009, 0.0130052, 0.136837, 0.00648332, 0.379981
55505.651313292008126, 0.0413749, 0.00348759, 0.0129997, 0.136501, 0.00627993, 0.382745
55505.684629596005834, 0.0412249, 0.00348628, 0.0129413, 0.136324, 0.00737518, 0.38337
55505.718095963005908, 0.0405257, 0.00340737, 0.0126863, 0.138883, 0.00578524, 0.377123
55505.751412258003256, 0.0399271, 0.00332302, 0.0125184, 0.140233, 0.00354992, 0.37282
55505.784728592007014, 0.0399312, 0.00333434, 0.012507, 0.140294, 0.00406159, 0.373531
55505.818044958003156, 0.0395793, 0.00328395, 0.0123991, 0.141449, 0.00378939, 0.369865
55505.851361258006364, 0.0393242, 0.00325211, 0.012317, 0.142547, 0.00408687, 0.365633
55505.884677563008154, 0.0391992, 0.00324081, 0.0122759, 0.142612, 0.00521983, 0.364897
55505.917993958006264, 0.0388852, 0.00319677, 0.0121856, 0.143167, 0.00492361, 0.36256
55505.951310244003253, 0.0382956, 0.00312362, 0.0120041, 0.145309, 0.00317977, 0.356397
55505.984626625009696, 0.0380504, 0.00309344, 0.0119255, 0.146053, 0.00118578, 0.35418
55506.017942925005627, 0.0377485, 0.00305662, 0.0118295, 0.146824, 0.000297019, 0.350998
55506.051259272004245, 0.0370167, 0.00297444, 0.0116028, 0.147899, 0.00346141, 0.344741
55506.084725625005376, 0.0368729, 0.00296115, 0.011544, 0.148202, 0.00416974, 0.342516
55506.118041958005051, 0.0367413, 0.00294431, 0.0114848, 0.148683, 0.00309061, 0.340275
55506.151358282004367, 0.0365365, 0.00292041, 0.0114156, 0.149576, 0.0011602, 0.338558
55506.184674596006516, 0.0361233, 0.00288483, 0.0112593, 0.150704, 0.000607212, 0.334561
55506.217990958008158, 0.0359649, 0.0028584, 0.0111982, 0.150622, 0.00064368, 0.333965
55506.25130725800409, 0.0356426, 0.00282613, 0.0110521, 0.151398, -0.000550414, 0.331158
55506.284623625004315, 0.0350285, 0.0027831, 0.010815, 0.15185, 0.000806424, 0.327939
55506.31793995800399, 0.0345622, 0.0027544, 0.0106681, 0.153003, 0.000664102, 0.324442
55506.35125626300578, 0.0341074, 0.00273552, 0.010505, 0.153517, 0.000625079, 0.322307
55506.384572591006872, 0.0335244, 0.00268202, 0.0102777, 0.152909, 0.00208352, 0.322307
55506.418038925003202, 0.0328368, 0.00270524, 0.0100316, 0.152611, 0.00541092, 0.320668
55506.451355291006621, 0.0325662, 0.00267962, 0.00996941, 0.152392, 0.00672374, 0.320338
55506.484672072008834, 0.0323462, 0.00269801, 0.00990244, 0.152278, 0.00740411, 0.319996
55506.517987896004342, 0.0319178, 0.00271768, 0.00973967, 0.151729, 0.008332, 0.320505
55506.551304258005985, 0.0315368, 0.0027116, 0.00959784, 0.15221, 0.00635366, 0.320099
55506.584620596004243, 0.0312702, 0.00271386, 0.00946055, 0.152375, 0.00409188, 0.32091
55506.617936958005885, 0.0308359, 0.00284058, 0.00926836, 0.152665, 1.86742e-05, 0.3212
55506.651253263007675, 0.0302095, 0.00290101, 0.00902025, 0.153335, -0.00520282, 0.321646
55506.684569625009317, 0.0297439, 0.00298783, 0.00882905, 0.15392, -0.0106035, 0.322144
55506.717885958008992, 0.0295598, 0.00304007, 0.00872757, 0.153821, -0.0132582, 0.323617
55506.751202263003506, 0.0292601, 0.00303726, 0.00851767, 0.151869, -0.012709, 0.329431
55506.784668625004997, 0.0289919, 0.00307872, 0.00833338, 0.149997, -0.0126841, 0.334615
55506.817984925008204, 0.0284975, 0.00315849, 0.00810105, 0.14936, -0.017874, 0.338367
55506.851301291004347, 0.0282303, 0.00316046, 0.00793159, 0.148008, -0.0183325, 0.342797
55506.884617625008104, 0.0281133, 0.00315172, 0.00782128, 0.145809, -0.014475, 0.34709
55506.917933958007779, 0.0279784, 0.00309106, 0.00772004, 0.143428, -0.0079541, 0.350826
55506.95125026300957, 0.0277069, 0.00305291, 0.00753681, 0.141467, -0.0059138, 0.356061
55506.984566625003936, 0.0276774, 0.00297456, 0.00748761, 0.139011, 0.00326055, 0.358532
55507.017882925007143, 0.027537, 0.0029008, 0.00740206, 0.137279, 0.00915347, 0.360902
55507.051199263005401, 0.0274873, 0.00281386, 0.0073313, 0.134779, 0.0183912, 0.363749
55507.084515582006134, 0.0281083, 0.00259826, 0.00722076, 0.126163, 0.0451486, 0.378246
55507.117981958006567, 0.0282862, 0.00266013, 0.00715962, 0.124378, 0.0448027, 0.383807
55507.151298263008357, 0.0279162, 0.00238554, 0.00695711, 0.119672, 0.0646359, 0.3889
55507.184614625009999, 0.0278196, 0.0022617, 0.00689066, 0.116772, 0.0773494, 0.390833
55507.217930929007707, 0.0274863, 0.00218204, 0.00673459, 0.115069, 0.0812765, 0.394123
55507.251247291009349, 0.027228, 0.00201179, 0.0065706, 0.111908, 0.0926517, 0.398847
55507.284563629007607, 0.0269326, 0.00194213, 0.00637698, 0.108451, 0.100078, 0.404739
55507.317879958005506, 0.0265699, 0.00183795, 0.00612511, 0.104759, 0.106837, 0.412807
55507.351196263007296, 0.0263131, 0.00170456, 0.00601268, 0.102499, 0.116223, 0.415031
55507.384512591008388, 0.0262504, 0.00155652, 0.00598055, 0.100116, 0.129192, 0.415829
55507.417828958008613, 0.0259397, 0.00142325, 0.00586109, 0.0978368, 0.138642, 0.417772
55507.451145291008288, 0.025709, 0.00130143, 0.00575598, 0.095471, 0.147981, 0.420105
55507.484611591004068, 0.0254316, 0.00119535, 0.00563491, 0.0935537, 0.154518, 0.42272
55507.517927929009602, 0.0251031, 0.00106092, 0.00555229, 0.092585, 0.161573, 0.422468
55507.551244263006083, 0.0249558, 0.000970715, 0.00548183, 0.0905699, 0.169034, 0.424576
55507.584560625007725, 0.0249997, 0.00103937, 0.00544437, 0.0886436, 0.169492, 0.427957
55507.617876925003657, 0.0248249, 0.000941839, 0.00532771, 0.0865478, 0.174986, 0.432192
55507.651193291007075, 0.0248773, 0.000921319, 0.00531148, 0.0854967, 0.177547, 0.434219
55507.684509591003007, 0.0245734, 0.000904812, 0.00516905, 0.0846325, 0.17581, 0.437435
55507.717825929008541, 0.0245254, 0.00104984, 0.00516551, 0.0839929, 0.170551, 0.438393
55507.751142234003055, 0.0244324, 0.0009952, 0.00517431, 0.0833747, 0.174937, 0.437622
55507.784458625006664, 0.0241031, 0.000982686, 0.00506163, 0.0846114, 0.170051, 0.436912
55507.817924929004221, 0.023929, 0.000919544, 0.00498802, 0.0849905, 0.170362, 0.436851
55507.851241263007978, 0.0239036, 0.000916139, 0.00500368, 0.0855512, 0.169948, 0.435225
55507.88455762500962, 0.0236928, 0.000873344, 0.00498588, 0.0874741, 0.168845, 0.430516
55507.917873948004853, 0.0235333, 0.000849801, 0.004992, 0.0893504, 0.167667, 0.425538
55507.951190263003809, 0.0233372, 0.000829368, 0.00495058, 0.0908795, 0.165439, 0.422266
55507.984506596003484, 0.0233772, 0.000881209, 0.00500536, 0.092751, 0.161657, 0.417789
55508.01782292900316, 0.0233915, 0.000914635, 0.00505989, 0.0943452, 0.15934, 0.413399
55508.051139291004802, 0.023264, 0.000917941, 0.00508288, 0.0967371, 0.156597, 0.407119
55508.084455625008559, 0.0233594, 0.000955977, 0.0051764, 0.0989643, 0.154174, 0.400877
55508.117771958008234, 0.02321, 0.00102069, 0.00520461, 0.102178, 0.146982, 0.39326
55508.151238234007906, 0.0231623, 0.00101701, 0.00520442, 0.102617, 0.146527, 0.392013
55508.184554629006016, 0.0233234, 0.0010341, 0.00531757, 0.103862, 0.146964, 0.387463
55508.217870958003914, 0.0233302, 0.000981382, 0.00538235, 0.10476, 0.15048, 0.383115
55508.251187291003589, 0.0233505, 0.000913876, 0.00547548, 0.105734, 0.155682, 0.377645
55508.284503667004174, 0.023627, 0.000932333, 0.00562167, 0.106087, 0.15844, 0.374693
55508.317819929005054, 0.0237423, 0.000943628, 0.00566218, 0.105914, 0.159278, 0.374693
55508.351136291006696, 0.0239158, 0.000933025, 0.00568625, 0.105175, 0.162052, 0.376176
55508.384452596008487, 0.0241798, 0.000893733, 0.00573689, 0.10393, 0.168198, 0.37802
55508.417768924009579, 0.024353, 0.000914218, 0.00580187, 0.104002, 0.168861, 0.377342
55508.451085263004643, 0.0244638, 0.000884326, 0.00582887, 0.103273, 0.173031, 0.378027
55508.484401624009479, 0.0244917, 0.000776231, 0.00581869, 0.101125, 0.183987, 0.38022
55508.517867924005259, 0.0244195, 0.000638663, 0.00581459, 0.0988047, 0.197831, 0.381183
55508.551184291005484, 0.0243349, 0.000591663, 0.0058014, 0.0984585, 0.200998, 0.380957
55508.584500624005159, 0.0241663, 0.000451947, 0.00575179, 0.0968494, 0.211832, 0.38138
55508.617816958008916, 0.0240318, 0.000366084, 0.0056955, 0.0956371, 0.218497, 0.382307
55508.651133291008591, 0.0241165, 0.000361821, 0.00572167, 0.0949846, 0.221678, 0.382593
55508.684449596003105, 0.0240155, 0.00027826, 0.00570472, 0.0938656, 0.229758, 0.382
55508.717765958004748, 0.0238327, 0.000191868, 0.00565898, 0.0931016, 0.235803, 0.381504
55508.75108279100823, 0.023861, 0.000184375, 0.00568645, 0.092699, 0.238861, 0.380857
55508.784398624004098, 0.0236521, 6.38229e-05, 0.00564017, 0.0912199, 0.249745, 0.379636
55508.817714958007855, 0.0232551, -0.000123305, 0.00555195, 0.0894942, 0.263894, 0.37757
55508.851181262005412, 0.0232125, -0.000146541, 0.00554752, 0.0892189, 0.266242, 0.377124
55508.884497624007054, 0.0226607, -0.000351857, 0.00539364, 0.0877864, 0.278469, 0.375128
55508.917813958003535, 0.0221564, -0.000538777, 0.00527718, 0.0864044, 0.2908, 0.372573
55508.951130262008519, 0.0216726, -0.000693892, 0.00512778, 0.0855173, 0.298091, 0.371323
55508.984446596005, 0.020971, -0.000915644, 0.00489456, 0.0842703, 0.307841, 0.369675
55509.017762958006642, 0.0205703, -0.00103443, 0.00478119, 0.0832864, 0.315505, 0.367736
55509.051079291006317, 0.020374, -0.00109527, 0.0047253, 0.0827681, 0.319367, 0.366728
55509.084395624005992, 0.0199368, -0.00123656, 0.00458587, 0.0820777, 0.325235, 0.365304
55509.11771195800975, 0.0194515, -0.00135598, 0.00441492, 0.0814285, 0.329806, 0.363837
55509.151028291009425, 0.0191404, -0.0014247, 0.00430005, 0.0811985, 0.331465, 0.363129
55509.184344596003939, 0.0188211, -0.00151894, 0.00419567, 0.0807849, 0.334832, 0.362058
55509.21781095800543, 0.0183598, -0.00162329, 0.00404672, 0.0802925, 0.33857, 0.360422
55509.251127262003138, 0.01793, -0.00172999, 0.00393394, 0.0798175, 0.3425, 0.358872
55509.28444362400478, 0.0173804, -0.00188314, 0.00378597, 0.0794895, 0.346368, 0.35735
55509.31775992900657, 0.0169996, -0.00198495, 0.00368226, 0.0790651, 0.349697, 0.356131
55509.351076262006245, 0.0167215, -0.00205098, 0.0035826, 0.0785366, 0.352602, 0.35492
55509.384392624007887, 0.0163635, -0.00211416, 0.00346139, 0.078312, 0.354022, 0.353767
55509.417708958004368, 0.0160077, -0.00217341, 0.00334649, 0.0782076, 0.35497, 0.352718
55509.451025262009352, 0.0157872, -0.00221872, 0.00328169, 0.078053, 0.355877, 0.352188
55509.484341596005834, 0.0155452, -0.00224578, 0.00320099, 0.0782348, 0.355625, 0.351348
55509.517658643009781, 0.0150823, -0.00230752, 0.00303776, 0.0789288, 0.354344, 0.349695
55509.551124291007, 0.0146042, -0.00239316, 0.00287407, 0.0795042, 0.353676, 0.348177
55509.584440624006675, 0.0143168, -0.00242342, 0.00277068, 0.0804, 0.351921, 0.346705
55509.617756958003156, 0.0140905, -0.00244242, 0.00270005, 0.0811912, 0.350513, 0.345338
55509.651073291010107, 0.0137774, -0.00250474, 0.00260507, 0.0824378, 0.349033, 0.343207
55509.684389591006038, 0.0135667, -0.002528, 0.00253228, 0.082916, 0.348269, 0.342133
55509.717705981005565, 0.013336, -0.00256277, 0.00245339, 0.0836254, 0.347383, 0.340635
55509.751022262003971, 0.0131341, -0.00261857, 0.00239838, 0.084522, 0.346827, 0.338821
55509.784338591009146, 0.0128783, -0.00267137, 0.00232768, 0.0858311, 0.345726, 0.336207
55509.817654958009371, 0.0128676, -0.00268351, 0.00234504, 0.086412, 0.345527, 0.334997
55509.850971291009046, 0.0129122, -0.00267516, 0.00236849, 0.0869375, 0.345124, 0.333903
55509.88428759600356, 0.0127402, -0.00271206, 0.00235486, 0.0880484, 0.344744, 0.331187
55509.917753924004501, 0.0128098, -0.00268929, 0.00239652, 0.0886239, 0.344207, 0.329854
55509.951070243005233, 0.0127967, -0.00270948, 0.00243109, 0.0897841, 0.344036, 0.326928
55509.984386591007933, 0.0128166, -0.00269944, 0.00246978, 0.0909435, 0.343185, 0.324125
55510.017702958008158, 0.0129632, -0.00266228, 0.00253802, 0.0914008, 0.342664, 0.322939
55510.051019262005866, 0.0129757, -0.00264951, 0.00256771, 0.092114, 0.341987, 0.321122
55510.084335562009073, 0.0130547, -0.00262157, 0.00259158, 0.0925822, 0.340981, 0.320226
55510.117651896005555, 0.0132817, -0.00255509, 0.00266977, 0.0930568, 0.33957, 0.319283
55510.150968262008973, 0.0133515, -0.00255734, 0.00271653, 0.0934074, 0.339984, 0.318034
55510.18428462400334, 0.0133677, -0.00259018, 0.0027544, 0.0938302, 0.341178, 0.316343
55510.217600958007097, 0.0134667, -0.00258936, 0.00281692, 0.0944604, 0.341222, 0.314453
55510.251067262004653, 0.0135771, -0.00259633, 0.00288241, 0.094505, 0.342674, 0.313461
55510.284383591009828, 0.013579, -0.00260028, 0.00290776, 0.094882, 0.342673, 0.312254
55510.317699948005611, 0.0136279, -0.00262848, 0.00294061, 0.09493, 0.344365, 0.311362
55510.351016291009728, 0.0138884, -0.00262226, 0.00304451, 0.0945014, 0.347459, 0.310806
55510.384332596004242, 0.0139547, -0.00262917, 0.00307853, 0.0942216, 0.349378, 0.310461
55510.41764897700341, 0.0139717, -0.00265079, 0.00308009, 0.0938553, 0.351521, 0.310448
55510.450965257005009, 0.0140662, -0.00265034, 0.00311446, 0.0933489, 0.353996, 0.31035
55510.484281596007349, 0.0140944, -0.0026532, 0.00312267, 0.0931421, 0.355146, 0.310268
55510.517597929007025, 0.0140129, -0.00270006, 0.0031065, 0.0926834, 0.358835, 0.309487
55510.550914234008815, 0.013994, -0.00273052, 0.00310708, 0.0925567, 0.361001, 0.308772
55510.584230624008342, 0.0139745, -0.00274368, 0.00309996, 0.0923418, 0.362487, 0.308478
55510.617696924004122, 0.0138865, -0.00276799, 0.00307867, 0.091829, 0.365613, 0.307683
55510.651013262009656, 0.0137431, -0.00281494, 0.00303723, 0.0915554, 0.368176, 0.306886
55510.684329596006137, 0.013456, -0.00290705, 0.00296509, 0.091038, 0.373507, 0.304855
55510.717645924007229, 0.0133336, -0.00293078, 0.00292272, 0.0907777, 0.375221, 0.304277
55510.750962262005487, 0.0131423, -0.00298665, 0.00287912, 0.0904407, 0.378676, 0.30272
55510.784278624007129, 0.0128282, -0.00307308, 0.00277893, 0.0901299, 0.381949, 0.301222
55510.817594957006804, 0.0124862, -0.00314869, 0.00266125, 0.0898261, 0.384711, 0.29975
55510.850911291003285, 0.0121943, -0.00322335, 0.00257175, 0.0897192, 0.386548, 0.298523
55510.884227596005076, 0.0120574, -0.00325675, 0.00252393, 0.0893582, 0.389238, 0.297142
55510.917543924006168, 0.0116533, -0.0033443, 0.00235179, 0.089218, 0.391131, 0.295291
55510.95101023400639, 0.0110984, -0.0034651, 0.00216873, 0.0891044, 0.393637, 0.292642
55510.984326595003949, 0.010664, -0.00355721, 0.00204304, 0.088847, 0.396424, 0.29019
55511.017642957005592, 0.0105307, -0.00357217, 0.00198924, 0.088719, 0.39739, 0.28918
55511.050959291009349, 0.0104115, -0.00359369, 0.0019715, 0.0885106, 0.398533, 0.288476
55511.084275624009024, 0.0102029, -0.00361315, 0.00190127, 0.088465, 0.39925, 0.287171
55511.117591957008699, 0.00992244, -0.00365432, 0.00181054, 0.0887267, 0.399021, 0.285748
55511.150908262003213, 0.00963376, -0.00369911, 0.00173458, 0.0891985, 0.397744, 0.284893
55511.184224624004855, 0.00933518, -0.00373754, 0.00165124, 0.0893929, 0.397506, 0.283607
55511.217540929006645, 0.00933738, -0.00370435, 0.001635, 0.0892756, 0.398321, 0.283092
55511.250857291008288, 0.0093929, -0.00367268, 0.00164021, 0.0887943, 0.399606, 0.283114
55511.284323624007811, 0.0092435, -0.00368142, 0.00158571, 0.089378, 0.398903, 0.281912
55511.317639957007486, 0.00918193, -0.00368803, 0.0015671, 0.0895415, 0.398677, 0.281546
55511.350956257003418, 0.00905439, -0.00369178, 0.00150767, 0.0898556, 0.398589, 0.280324
55511.384272591007175, 0.00889977, -0.00370691, 0.00146146, 0.090281, 0.398095, 0.2793
55511.417588957003318, 0.00882987, -0.00367079, 0.00141027, 0.0905337, 0.398642, 0.27804
55511.450905291007075, 0.00870579, -0.00366062, 0.00136263, 0.0909316, 0.398621, 0.276823
55511.484221595004783, 0.00866813, -0.00365747, 0.00134859, 0.0912591, 0.398529, 0.276106
55511.51753792900854, 0.00853867, -0.00365456, 0.00128488, 0.0920122, 0.398219, 0.274118
55511.550854295004683, 0.00852228, -0.00363319, 0.00126442, 0.0920827, 0.398498, 0.273685
55511.584170624009857, 0.00861657, -0.00359676, 0.0012933, 0.0924731, 0.398966, 0.272873
55511.617486957009532, 0.00871319, -0.00356252, 0.00132513, 0.0930612, 0.399311, 0.271637
55511.650953291005862, 0.0087323, -0.00354682, 0.00133565, 0.0934844, 0.399414, 0.270668
55511.684269624005537, 0.00888292, -0.00351002, 0.00139059, 0.093521, 0.399981, 0.270684
55511.717585924008745, 0.00902839, -0.00347448, 0.00144983, 0.0937788, 0.400514, 0.270116
55511.75090229100897, 0.00918834, -0.00344438, 0.00151996, 0.0939353, 0.401035, 0.269738
55511.784218591004901, 0.00940013, -0.00339414, 0.00155465, 0.0945438, 0.40111, 0.268456
55511.81753495700832, 0.00947553, -0.00339424, 0.00158392, 0.0945563, 0.401263, 0.268435
55511.850851291004801, 0.00985852, -0.00332944, 0.00167822, 0.0943993, 0.401966, 0.268987
55511.884167591008008, 0.0101817, -0.00328707, 0.0017592, 0.0942899, 0.402512, 0.269383
55511.917483929006266, 0.0103614, -0.00325875, 0.00180726, 0.0943201, 0.40276, 0.269329
55511.950800257007359, 0.0105424, -0.003233, 0.0018678, 0.0943252, 0.403206, 0.269168
55511.984266591003689, 0.0107218, -0.00321637, 0.00193265, 0.0944576, 0.403699, 0.268605
55512.017582957007107, 0.0108092, -0.00321231, 0.00197414, 0.0945711, 0.404096, 0.26807
55512.050899291003589, 0.0109787, -0.0031934, 0.00204021, 0.0939479, 0.405171, 0.269319
55512.084215624003264, 0.0111783, -0.0031718, 0.00211578, 0.0937392, 0.405985, 0.269562
55512.117531957002939, 0.0114994, -0.00314311, 0.00221583, 0.093703, 0.40681, 0.269509
55512.150848291006696, 0.0117071, -0.00311302, 0.00229254, 0.0934978, 0.407553, 0.269811
55512.184164624006371, 0.0117959, -0.00310835, 0.00233587, 0.0932801, 0.408164, 0.270155
55512.217480957006046, 0.0121467, -0.00307361, 0.00245031, 0.0921846, 0.410178, 0.27254
55512.250797229004093, 0.0122614, -0.00305597, 0.00248965, 0.0918396, 0.410874, 0.273271
55512.284113595007511, 0.0123564, -0.00305545, 0.00252673, 0.0912886, 0.411942, 0.274408
55512.317429929003993, 0.0125267, -0.00303927, 0.00257505, 0.0905671, 0.413355, 0.27596
55512.350896248004574, 0.0127695, -0.003012, 0.00264431, 0.089901, 0.414782, 0.277482
55512.384213157005433, 0.0129698, -0.00299321, 0.00271346, 0.0888766, 0.416971, 0.279634
55512.417528957004834, 0.0129527, -0.00301557, 0.00270404, 0.088302, 0.418088, 0.280605
55512.450845262006624, 0.0128948, -0.0030262, 0.00268117, 0.0882602, 0.418188, 0.280491
55512.484161624008266, 0.0129076, -0.00303789, 0.00268095, 0.0876595, 0.419619, 0.281437
55512.517477924004197, 0.0129164, -0.0030493, 0.00267411, 0.0868844, 0.421599, 0.282613
55512.550794262009731, 0.0129426, -0.00305864, 0.00267908, 0.0860607, 0.423755, 0.283926
55512.584110800009512, 0.0129263, -0.00308013, 0.00266909, 0.0856358, 0.424816, 0.284363
55512.617426957003772, 0.013024, -0.00307515, 0.00268372, 0.0847748, 0.427444, 0.285625
55512.650743290003447, 0.0131624, -0.00304002, 0.00271211, 0.0841849, 0.429819, 0.286577
55512.684209624007053, 0.013284, -0.00302116, 0.00272484, 0.0836743, 0.432131, 0.286983
55512.717525929008843, 0.013389, -0.00302627, 0.00272991, 0.0831672, 0.433856, 0.287391
55512.750842233006551, 0.0133765, -0.00302252, 0.00270443, 0.0828767, 0.435704, 0.286957
55512.784158624002885, 0.0134061, -0.00301058, 0.00268468, 0.0825522, 0.438089, 0.286477
55512.817474924006092, 0.013478, -0.00300808, 0.00268459, 0.0820576, 0.440398, 0.286592
55512.85079126200435, 0.013694, -0.00300786, 0.00274232, 0.0813721, 0.441646, 0.288511
55512.884107595004025, 0.0138218, -0.00298382, 0.00274281, 0.0817951, 0.4418, 0.28705
55512.917423929007782, 0.0137635, -0.00298112, 0.00267823, 0.0822058, 0.442739, 0.28415
55512.950740257008874, 0.0139363, -0.00297434, 0.00270549, 0.0822114, 0.442912, 0.283959
55512.984056624009099, 0.0130712, -0.00301254, 0.00243095, 0.0846305, 0.440073, 0.274526
55513.017372957008774, 0.0129339, -0.00301214, 0.00237946, 0.0850319, 0.440263, 0.27261
55513.050839262003137, 0.012947, -0.00300362, 0.00236865, 0.084737, 0.442043, 0.272606
55513.084155624004779, 0.012502, -0.00303815, 0.00223904, 0.084867, 0.442531, 0.270077
55513.117471957004454, 0.0126342, -0.00302907, 0.0022729, 0.0844819, 0.443276, 0.271244
55513.15078829000413, 0.0126971, -0.00302563, 0.00229078, 0.0841064, 0.444053, 0.27223
55513.184104590007337, 0.0125155, -0.00303002, 0.00220035, 0.0841484, 0.446351, 0.269805
55513.217420957007562, 0.0126052, -0.00301734, 0.00221237, 0.0831022, 0.449863, 0.271563
55513.250737262009352, 0.0128148, -0.00300317, 0.00229086, 0.0822497, 0.451295, 0.274621
55513.284053595009027, 0.0123757, -0.00302495, 0.00216545, 0.0832552, 0.449768, 0.270965
55513.317369924006925, 0.0127274, -0.00299809, 0.00225974, 0.0828347, 0.450718, 0.272963
55513.350686262005183, 0.0125755, -0.00299454, 0.00220065, 0.0835618, 0.450421, 0.27044
55513.384152590006124, 0.0122382, -0.00301494, 0.00209935, 0.0847867, 0.448134, 0.266664
55513.417468957006349, 0.0121022, -0.00302548, 0.00206056, 0.0853851, 0.446985, 0.264852
55513.450785290006024, 0.012062, -0.00301427, 0.00203631, 0.0858826, 0.447058, 0.263248
55513.484101624009782, 0.0117598, -0.00301884, 0.00193306, 0.0862748, 0.447477, 0.261106
55513.517417957009457, 0.0117296, -0.00301946, 0.00191749, 0.0861597, 0.447944, 0.261123
55513.550734262003971, 0.0115365, -0.00303499, 0.00184693, 0.0856366, 0.449199, 0.261416
55513.584050590005063, 0.0113397, -0.00304523, 0.00178352, 0.0853357, 0.450246, 0.261291
55513.617366957005288, 0.0117501, -0.00303395, 0.00194235, 0.0843814, 0.451251, 0.264905
55513.650683290004963, 0.0119873, -0.00300057, 0.00202049, 0.0852143, 0.450337, 0.263816
55513.683999595006753, 0.0123093, -0.0029884, 0.00208926, 0.0839403, 0.453561, 0.266486
55513.717315957008395, 0.01225, -0.00300973, 0.00206323, 0.0824511, 0.456331, 0.269095
55513.750782262010034, 0.0121906, -0.00304244, 0.00203964, 0.0821125, 0.455946, 0.269781
55513.784098595009709, 0.0121144, -0.00304274, 0.00199018, 0.0820143, 0.456388, 0.269734
55513.817414928009384, 0.0121237, -0.00302486, 0.00197969, 0.082588, 0.455604, 0.268705
55513.85073129000375, 0.0118163, -0.00302538, 0.00187718, 0.082693, 0.455663, 0.268135
55513.884047562009073, 0.011618, -0.00302726, 0.00183428, 0.0824011, 0.456575, 0.268388
55513.917363928005216, 0.0114943, -0.00301888, 0.00179099, 0.0822318, 0.457376, 0.268481
55513.950680257003114, 0.0113445, -0.00301635, 0.00174949, 0.082188, 0.457699, 0.268394
55513.983996562004904, 0.0112268, -0.00299667, 0.00168039, 0.0823114, 0.457945, 0.268058
55514.017311667004833, 0.0110696, -0.00299588, 0.00163703, 0.0822443, 0.458191, 0.268062
55514.050623586008442, 0.0108982, -0.00298541, 0.00159253, 0.0826339, 0.457566, 0.26729
55514.084085497008346, 0.0107882, -0.00299491, 0.00157043, 0.0821001, 0.458595, 0.268165
55514.117397437003092, 0.0107127, -0.00297615, 0.00153996, 0.0814152, 0.460058, 0.269439
55514.150709401008498, 0.0106476, -0.00296695, 0.00151966, 0.0812004, 0.460441, 0.269873
55514.184021275003033, 0.0105291, -0.00296229, 0.00148463, 0.0812389, 0.460137, 0.269962
55514.217333272004907, 0.0106308, -0.0029664, 0.0015222, 0.0814674, 0.460123, 0.269173
55514.250645175008685, 0.0106815, -0.00297799, 0.00152234, 0.0804417, 0.462031, 0.271257
55514.283957143008593, 0.0106131, -0.00298415, 0.00149776, 0.0804577, 0.461729, 0.271473
55514.317269079008838, 0.0106867, -0.00299723, 0.00153049, 0.0807738, 0.461632, 0.270512
55514.350581019003585, 0.0107835, -0.00299758, 0.00155603, 0.0808065, 0.461737, 0.270351
55514.383892893005395, 0.0108495, -0.00300352, 0.00158861, 0.080831, 0.462251, 0.269781
55514.417354866003734, 0.0108406, -0.00302257, 0.00160577, 0.0810433, 0.462663, 0.268755
55514.450666801007173, 0.0108577, -0.0030217, 0.00163965, 0.0808271, 0.463697, 0.268372
55514.483978818003379, 0.0109132, -0.00302389, 0.00166171, 0.0804859, 0.464708, 0.268727
55514.517290673007665, 0.0110787, -0.00301586, 0.00169359, 0.0800885, 0.465545, 0.269466
55514.550602608003828, 0.0112013, -0.00300781, 0.0017126, 0.0796733, 0.466254, 0.270299
55514.583914615002868, 0.0112739, -0.00300285, 0.00171233, 0.0792092, 0.466732, 0.271471
55514.617226479007513, 0.0113331, -0.00300279, 0.00170725, 0.0787094, 0.467372, 0.272795
55514.650538415007759, 0.0113107, -0.0030135, 0.00168299, 0.078172, 0.468247, 0.274246
55514.68385032700462, 0.0112884, -0.00302999, 0.0016644, 0.0776833, 0.469514, 0.275379
55514.717162286004168, 0.0113043, -0.00304737, 0.00165309, 0.077394, 0.470671, 0.2761
55514.750474188003864, 0.0112836, -0.0030725, 0.00163805, 0.077198, 0.472091, 0.276492
55514.783936118008569, 0.0112535, -0.003094, 0.00161523, 0.0771009, 0.472971, 0.276971
55514.817248040009872, 0.0112288, -0.00310961, 0.00159038, 0.0769423, 0.473607, 0.277683
55514.850559947008151, 0.0111028, -0.00312405, 0.00154034, 0.0767774, 0.473938, 0.278386
55514.883871911006281, 0.0109386, -0.00314301, 0.00150089, 0.0768186, 0.474557, 0.278223
55514.917183851008303, 0.0106465, -0.00315734, 0.00143807, 0.0768346, 0.474758, 0.2782
55514.950495782009966, 0.0102609, -0.00316679, 0.00135793, 0.0767557, 0.474807, 0.278345
55514.98380775100668, 0.00991907, -0.00317358, 0.0012917, 0.0766609, 0.474862, 0.278485
55515.017120922006143, 0.00970832, -0.00317854, 0.00125195, 0.0766348, 0.47496, 0.27842
55515.050437290003174, 0.0095464, -0.00318205, 0.00122008, 0.0765608, 0.47506, 0.278577
55515.083753595004964, 0.00942944, -0.00318203, 0.00119799, 0.0764031, 0.475131, 0.278873
55515.117219957006455, 0.00930237, -0.00318482, 0.00117116, 0.0763987, 0.475081, 0.278813
55515.15053629000613, 0.00912793, -0.00319008, 0.00113477, 0.0763619, 0.475034, 0.278822
55515.183852623005805, 0.00891196, -0.00319919, 0.00109141, 0.0763621, 0.474986, 0.278711
55515.217168957009562, 0.00865732, -0.00321229, 0.00104463, 0.0764667, 0.474926, 0.278277
55515.250485290009237, 0.0084204, -0.00322501, 0.00100199, 0.076504, 0.474948, 0.277985
55515.283801595003752, 0.00832484, -0.00322945, 0.000985422, 0.0764516, 0.475092, 0.277994
55515.317117923004844, 0.00829343, -0.0032286, 0.000979351, 0.0763276, 0.475143, 0.278299
55515.350434638006845, 0.00825822, -0.00323125, 0.000966442, 0.0763114, 0.475166, 0.278405
55515.383750623004744, 0.00820155, -0.00323668, 0.000945509, 0.0763578, 0.475174, 0.278357
55515.417066957008501, 0.00815318, -0.00324287, 0.000925697, 0.0762988, 0.475328, 0.278526
55515.450383262003015, 0.00806442, -0.00325116, 0.000895259, 0.0762395, 0.475472, 0.27865
55515.4838496230077, 0.0079869, -0.00325768, 0.000868503, 0.0761707, 0.475627, 0.278797
55515.517165957004181, 0.00794548, -0.00326321, 0.000852952, 0.0759637, 0.475994, 0.279247
55515.550482290003856, 0.00792324, -0.00326042, 0.000834903, 0.0757536, 0.476127, 0.279836
55515.583798590007063, 0.00792843, -0.00325835, 0.000814314, 0.0756199, 0.476179, 0.28032
55515.617114957007288, 0.00791165, -0.00325847, 0.000796108, 0.0755898, 0.476202, 0.28051
55515.650431261004996, 0.00788677, -0.00325747, 0.0007836, 0.075487, 0.476384, 0.280842
55515.683747623006639, 0.00787331, -0.00325449, 0.000777397, 0.0753454, 0.476648, 0.281267
55515.717063928008429, 0.00783473, -0.00325092, 0.000765629, 0.0753409, 0.476677, 0.281431
55515.750380290010071, 0.00779461, -0.00325001, 0.000751553, 0.0753569, 0.476751, 0.281472
55515.783696590006002, 0.00770062, -0.00324878, 0.000728301, 0.0753134, 0.476778, 0.281642
55515.817162923005526, 0.00759587, -0.00324825, 0.000708245, 0.0752798, 0.476824, 0.281755
55515.850479257009283, 0.00748463, -0.00324527, 0.000688032, 0.0753515, 0.476621, 0.281655
55515.883795623005426, 0.00736774, -0.00324176, 0.000674069, 0.0752995, 0.476589, 0.281769
55515.917111957009183, 0.00729812, -0.00323226, 0.000665838, 0.0751436, 0.47654, 0.282217
55515.950428290008858, 0.00722063, -0.00322405, 0.000660038, 0.0750637, 0.476511, 0.282414
55515.983744595003373, 0.00709321, -0.00321859, 0.000641593, 0.07508, 0.47633, 0.282431
55516.017060957005015, 0.00694598, -0.00321088, 0.00061504, 0.0750576, 0.476083, 0.282535
55516.050377257008222, 0.0067865, -0.00320757, 0.000587414, 0.0751351, 0.475889, 0.282341
55516.083693623004365, 0.00664265, -0.00320209, 0.000562464, 0.0750823, 0.475822, 0.282492
55516.117009923007572, 0.00649908, -0.00319846, 0.000539908, 0.0749711, 0.475928, 0.282703
55516.150326290007797, 0.00641229, -0.00319171, 0.000517067, 0.0749075, 0.475834, 0.282886
55516.183792590003577, 0.0063324, -0.00318508, 0.00049854, 0.0747366, 0.475802, 0.283301
55516.217108923003252, 0.0062464, -0.00318064, 0.000478004, 0.074552, 0.475745, 0.283747
55516.250425290003477, 0.00616429, -0.00318031, 0.00045949, 0.0746232, 0.475569, 0.283563
55516.283741604005627, 0.00607722, -0.00317827, 0.000442057, 0.0746118, 0.475482, 0.283563
55516.317057923006359, 0.00596929, -0.00317774, 0.000417972, 0.0746406, 0.475339, 0.28352
55516.350374261004617, 0.00588089, -0.00317449, 0.000402978, 0.0746469, 0.475145, 0.283507
55516.38369062300626, 0.00579045, -0.00317561, 0.000386424, 0.074655, 0.475092, 0.283474
55516.41700692800805, 0.00572914, -0.00317253, 0.000375921, 0.0747438, 0.474759, 0.28324
55516.450323257005948, 0.00562895, -0.00317074, 0.000361788, 0.0748792, 0.474502, 0.282761
55516.483639623009367, 0.00559443, -0.00317504, 0.000356958, 0.0748443, 0.474634, 0.282739
55516.51710592800373, 0.00556877, -0.00317052, 0.000354395, 0.074551, 0.474922, 0.283386
55516.550422257008904, 0.0055791, -0.00317023, 0.000366483, 0.0742347, 0.475552, 0.283896
55516.583738595007162, 0.00556904, -0.00317668, 0.000375523, 0.0741209, 0.476225, 0.283848
55516.61705489900487, 0.00555532, -0.00318176, 0.000388016, 0.0739989, 0.476931, 0.283704
55516.650371290008479, 0.00553222, -0.00318791, 0.000394439, 0.073958, 0.477448, 0.283494
55516.683687623008154, 0.00549361, -0.00319648, 0.00039212, 0.074029, 0.477813, 0.283092
55516.717003914003726, 0.00547137, -0.0032007, 0.000393511, 0.0737355, 0.478558, 0.283465
55516.75032026100962, 0.00543043, -0.00320886, 0.000389865, 0.073503, 0.479256, 0.283801
55516.783636590007518, 0.0053868, -0.00321724, 0.000385623, 0.0733188, 0.479907, 0.284032
55516.816952904009668, 0.00536286, -0.00322578, 0.000382408, 0.0731254, 0.480565, 0.28433
55516.850269261005451, 0.00533292, -0.00322812, 0.000379993, 0.0731126, 0.480733, 0.284295
55516.883736023009988, 0.00531186, -0.00323155, 0.000373608, 0.0731477, 0.480768, 0.284239
55516.91705195200484, 0.00531364, -0.00323184, 0.000369123, 0.0729861, 0.48104, 0.284666
55516.950368290003098, 0.00529093, -0.00323154, 0.000358636, 0.0730028, 0.480969, 0.284676
55516.983684595004888, 0.00525157, -0.00323718, 0.000342737, 0.0731637, 0.480878, 0.28431
55517.01700095700653, 0.00523641, -0.00323872, 0.000336243, 0.0728226, 0.481474, 0.285142
55517.050317290006205, 0.0052083, -0.00324274, 0.000334365, 0.0728005, 0.481651, 0.285197
55517.083633623005881, 0.00517437, -0.00324198, 0.000328164, 0.072705, 0.48172, 0.285537
55517.116949928007671, 0.00513696, -0.00324008, 0.000320252, 0.0725722, 0.481801, 0.285966
55517.150266290009313, 0.00509781, -0.00324305, 0.000307666, 0.0725849, 0.481823, 0.285945
55517.183582623008988, 0.00504696, -0.00324202, 0.000286015, 0.0724352, 0.482037, 0.286303
55517.217048923004768, 0.00503587, -0.00323527, 0.000271584, 0.0721747, 0.482304, 0.287005
55517.250365290004993, 0.00504454, -0.00323223, 0.000266937, 0.0720052, 0.482552, 0.28743
55517.283681595006783, 0.0050335, -0.00322476, 0.000262133, 0.0719706, 0.482536, 0.287545
55517.316997923007875, 0.00500192, -0.0032175, 0.000243863, 0.0717207, 0.482788, 0.288188
55517.3503142900081, 0.00498668, -0.00320933, 0.000227506, 0.0715911, 0.482856, 0.288571
55517.38363059500989, 0.00497028, -0.0032078, 0.000212375, 0.0715889, 0.4828, 0.288631
55517.416946928009565, 0.00494874, -0.00320219, 0.000198302, 0.071464, 0.482912, 0.28898
55517.450263261009241, 0.00493621, -0.00319173, 0.000187717, 0.0713059, 0.483029, 0.289425
55517.483579590007139, 0.00489049, -0.00317389, 0.000169511, 0.0712521, 0.482815, 0.28965
55517.516895956003282, 0.00485985, -0.00316464, 0.000146598, 0.0712146, 0.4827, 0.289847
55517.550362290006888, 0.00484061, -0.00316279, 0.000149848, 0.0714483, 0.482333, 0.289173
55517.583678623006563, 0.00481405, -0.00315889, 0.000134114, 0.0713902, 0.482278, 0.289408
55517.616994956006238, 0.00480016, -0.00315485, 0.000122041, 0.0711823, 0.482475, 0.29006
55517.650311742007034, 0.00477576, -0.00315433, 0.000109876, 0.0712575, 0.482252, 0.289904
55517.683627595004509, 0.00478614, -0.00315633, 0.000119996, 0.071415, 0.482107, 0.289379
55517.716944037005305, 0.00473733, -0.00316583, 9.6983e-05, 0.0715987, 0.481792, 0.288981
55517.750260261003859, 0.0047139, -0.00314712, 8.64376e-05, 0.0715788, 0.481336, 0.289197
55517.783576594003534, 0.0046819, -0.00314465, 7.54097e-05, 0.0715728, 0.48112, 0.289337
55517.816892961003759, 0.00467965, -0.00314305, 7.91195e-05, 0.0717581, 0.480831, 0.288743
55517.850209290008934, 0.00467896, -0.0031338, 8.30579e-05, 0.0718727, 0.480448, 0.288396
55517.883525590004865, 0.00464335, -0.00313333, 6.24029e-05, 0.0720179, 0.480026, 0.288163
55517.916991956008133, 0.00462079, -0.00313347, 5.48932e-05, 0.0721662, 0.479899, 0.287734
55517.950308256004064, 0.00461466, -0.00313559, 5.83152e-05, 0.0722601, 0.479953, 0.287327
55517.983624623004289, 0.00459737, -0.00313962, 6.32373e-05, 0.0724163, 0.480122, 0.286618
55518.016940923007496, 0.00458548, -0.00313635, 6.50147e-05, 0.0726071, 0.479954, 0.2859
55518.050257290007721, 0.00458308, -0.00312796, 6.15211e-05, 0.0726651, 0.47954, 0.285829
55518.083573590003652, 0.00458634, -0.00312334, 6.96769e-05, 0.0726957, 0.479393, 0.285582
55518.116889956007071, 0.00458007, -0.00312225, 7.70634e-05, 0.0727565, 0.479471, 0.285114
55518.150206261008861, 0.00456958, -0.00311932, 8.11138e-05, 0.0726735, 0.479577, 0.285196
55518.18352259000676, 0.00456518, -0.00312743, 8.66596e-05, 0.0725689, 0.48014, 0.28529
55518.216838956002903, 0.00455774, -0.00313179, 8.94074e-05, 0.0727825, 0.48029, 0.284355
55518.250305261004542, 0.00454974, -0.00313338, 9.20182e-05, 0.0728712, 0.48039, 0.283888
55518.283621623006184, 0.00453953, -0.00313713, 9.11305e-05, 0.0727545, 0.480693, 0.284269
55518.316937894007424, 0.00452195, -0.00314683, 8.89996e-05, 0.0728008, 0.481327, 0.284032
55518.350254290009616, 0.00447814, -0.00315182, 8.16572e-05, 0.0728697, 0.481449, 0.28393
55518.383570623009291, 0.00446256, -0.00316517, 8.06268e-05, 0.0727808, 0.482721, 0.284103
55518.416886956008966, 0.00443347, -0.00317553, 7.21046e-05, 0.0727262, 0.483575, 0.28443
55518.450203290005447, 0.00441439, -0.00317963, 6.29348e-05, 0.0727015, 0.483699, 0.284836
55518.483519623005122, 0.00439692, -0.00318312, 5.56111e-05, 0.0727338, 0.483832, 0.284978
55518.516835928006913, 0.00439219, -0.00318386, 5.11181e-05, 0.0728432, 0.483559, 0.284902
55518.550152290008555, 0.00438757, -0.00318077, 4.95664e-05, 0.0728396, 0.483163, 0.285048
55518.58346862300823, 0.00436788, -0.00317402, 3.67701e-05, 0.0727991, 0.482202, 0.285858
55518.616934956007753, 0.00434268, -0.0031706, 1.75502e-05, 0.0727052, 0.481381, 0.287192
55518.650251256003685, 0.00432881, -0.00316614, 6.84419e-06, 0.0726378, 0.480615, 0.288047
55518.68356762300391, 0.00431035, -0.00315217, -6.99415e-06, 0.0725172, 0.478628, 0.289491
55518.716883923007117, 0.00429637, -0.00314855, -1.50819e-05, 0.0725143, 0.477905, 0.29001
55518.750200256006792, 0.00428251, -0.00313545, -1.89727e-05, 0.0726042, 0.475733, 0.290306
55518.783516623007017, 0.00426592, -0.00312112, -3.29266e-05, 0.072508, 0.473309, 0.291835
55518.816832956006692, 0.00425817, -0.0031169, -3.72175e-05, 0.0723292, 0.472979, 0.292731
55518.850149304009392, 0.00424347, -0.00311216, -4.47506e-05, 0.0720188, 0.472801, 0.294253
55518.883465623002849, 0.0042388, -0.00310246, -4.88862e-05, 0.0717634, 0.471604, 0.295613
55518.916781899009948, 0.00424165, -0.00310319, -4.3816e-05, 0.0718028, 0.471897, 0.295065
55518.950248232009471, 0.00423049, -0.00310218, -4.16068e-05, 0.0718647, 0.471834, 0.294659
55518.983564623005805, 0.00422314, -0.00309184, -4.17056e-05, 0.0716824, 0.470434, 0.295513
55519.01688095600548, 0.00422314, -0.00308302, -4.12488e-05, 0.071439, 0.469437, 0.29639
55519.050197232005303, 0.00422729, -0.00307031, -4.10777e-05, 0.0711742, 0.467452, 0.297661
55519.083513590005168, 0.00423238, -0.00306401, -4.15335e-05, 0.0709802, 0.46677, 0.298505
55519.116829956008587, 0.00422318, -0.00306812, -4.16374e-05, 0.0707144, 0.469073, 0.298683
55519.150146256004518, 0.00421118, -0.0030807, -4.28569e-05, 0.0704282, 0.473898, 0.298233
55519.183462590008276, 0.00421649, -0.00308223, -4.09055e-05, 0.0702542, 0.475589, 0.298075
55519.216778928006534, 0.00422143, -0.00308808, -3.49604e-05, 0.0700902, 0.478787, 0.297153
55519.250095261006209, 0.00421899, -0.00309675, -3.79949e-05, 0.0696706, 0.484031, 0.29697
55519.283411623007851, 0.00422325, -0.00310706, -3.61724e-05, 0.0692812, 0.48987, 0.296105
55519.31687792800949, 0.00423169, -0.00310941, -2.93392e-05, 0.069232, 0.491647, 0.295132
55519.35019428900705, 0.00422841, -0.00310839, -3.39734e-05, 0.0689176, 0.49324, 0.295843
55519.38351059400884, 0.00422096, -0.00310513, -4.3018e-05, 0.0683617, 0.49522, 0.297277
55519.416826923006738, 0.00422551, -0.00309907, -3.81523e-05, 0.0681194, 0.495369, 0.297294
55519.450143856003706, 0.00423108, -0.00309325, -3.73047e-05, 0.0678027, 0.495683, 0.297825
55519.483459623006638, 0.00421752, -0.00309334, -4.4429e-05, 0.0675762, 0.496593, 0.298694
55519.516775956006313, 0.00419386, -0.00309087, -5.5248e-05, 0.0672459, 0.497293, 0.300133
55519.550092289005988, 0.00420534, -0.00308386, -4.95318e-05, 0.067097, 0.496712, 0.300117
55519.583408594007778, 0.00419289, -0.00307548, -6.14941e-05, 0.0668236, 0.4946, 0.302342
55519.61672492800426, 0.00419323, -0.00306529, -6.30734e-05, 0.0666271, 0.492219, 0.303513
55519.650191261003783, 0.00419541, -0.00305437, -6.09234e-05, 0.0664311, 0.489983, 0.304299
55519.683507594003459, 0.00417033, -0.00305322, -7.50967e-05, 0.0663773, 0.488821, 0.305832
55519.716823923008633, 0.00414695, -0.00305936, -8.66825e-05, 0.0664522, 0.490096, 0.306351
55519.750140232004924, 0.00413685, -0.00306422, -9.18768e-05, 0.0667331, 0.490656, 0.305893
55519.783456589007983, 0.00411408, -0.00306809, -9.56716e-05, 0.0667085, 0.491656, 0.306006
55519.816772928003047, 0.00406652, -0.00307845, -0.00011778, 0.0674506, 0.493766, 0.30509
55519.850089289007883, 0.00406816, -0.0030826, -0.000117221, 0.0679522, 0.494728, 0.303341
55519.883405589003814, 0.00405353, -0.00308721, -0.000123296, 0.068122, 0.495954, 0.303089
55519.916721956004039, 0.0040451, -0.00308788, -0.000125425, 0.0682331, 0.496131, 0.302803
55519.950038289003714, 0.00404149, -0.00309031, -0.000126063, 0.0683607, 0.496467, 0.302343
55519.98335461300303, 0.00403842, -0.00309132, -0.000127162, 0.0686318, 0.496903, 0.301419
55520.016820956006995, 0.00403458, -0.00309635, -0.000125385, 0.0689799, 0.498694, 0.299762
55520.050137256002927, 0.00403415, -0.00309881, -0.000124899, 0.0691491, 0.49954, 0.299024
55520.083453561004717, 0.00402226, -0.00309837, -0.000132764, 0.0693248, 0.499435, 0.299137
55520.116769956010103, 0.00401065, -0.00310012, -0.000138903, 0.0694656, 0.500098, 0.299082
55520.150086289009778, 0.00400066, -0.00309795, -0.000146471, 0.0696492, 0.499862, 0.299235
55520.183402589005709, 0.00399473, -0.00310068, -0.000151958, 0.0697294, 0.500361, 0.299369
55520.216718923009466, 0.00398569, -0.00310074, -0.000156039, 0.0698513, 0.500287, 0.299305
55520.250035227007174, 0.00398529, -0.00309847, -0.000156319, 0.0698899, 0.4996, 0.299357
55520.283351623009366, 0.0039839, -0.00309255, -0.00015764, 0.0699512, 0.49796, 0.299621
55520.316667927007074, 0.00397978, -0.00308881, -0.000155813, 0.0698424, 0.496775, 0.299933
55520.350134289008565, 0.00397576, -0.00308734, -0.000155062, 0.0698223, 0.496317, 0.299938
55520.383450594003079, 0.00397448, -0.00308917, -0.000156807, 0.069689, 0.496541, 0.30046
55520.416766956004722, 0.00397263, -0.00309062, -0.00015916, 0.0694731, 0.496844, 0.301224
55520.450083289004397, 0.00398063, -0.00308895, -0.000157432, 0.0689663, 0.496321, 0.302369
55520.483399623008154, 0.0039776, -0.00309848, -0.000157709, 0.0687084, 0.499235, 0.302173
55520.516715927005862, 0.00396535, -0.00310543, -0.000159245, 0.0686481, 0.501562, 0.301759
55520.550032289007504, 0.00396467, -0.00311106, -0.000158196, 0.0682362, 0.503511, 0.301807
55520.583348623003985, 0.00396207, -0.00311088, -0.000158845, 0.0680024, 0.503698, 0.302068
55520.61666495600366, 0.00394435, -0.0031203, -0.00016833, 0.0678675, 0.507158, 0.302281
55520.649981289003335, 0.00394633, -0.00312363, -0.000170403, 0.0677379, 0.508827, 0.302351
55520.683447594004974, 0.00394046, -0.0031242, -0.000173052, 0.0674673, 0.509642, 0.30285
55520.716763956006616, 0.00396979, -0.00311272, -0.000164435, 0.0671743, 0.505663, 0.303429
55520.750080261008407, 0.00397576, -0.00311159, -0.000164265, 0.0671295, 0.505538, 0.303618
55520.783396589009499, 0.00398525, -0.00311574, -0.000162452, 0.0671564, 0.507713, 0.302687
55520.816712956009724, 0.00398254, -0.00312134, -0.000161556, 0.0670876, 0.510748, 0.301724
55520.850029289009399, 0.00399647, -0.0031195, -0.00014857, 0.0671843, 0.510647, 0.299654
55520.88334562300588, 0.0040043, -0.00312136, -0.000144161, 0.0673358, 0.511888, 0.298338
55520.916661927003588, 0.00402991, -0.00312469, -0.000133407, 0.0677207, 0.513523, 0.295854
55520.949978261007345, 0.00404716, -0.00312745, -0.000123042, 0.0681517, 0.515641, 0.292955
55520.983294589008437, 0.00405188, -0.00312841, -0.000119296, 0.0682865, 0.516381, 0.291956
55521.016610956008662, 0.0040669, -0.00312801, -0.000112352, 0.0684379, 0.5164, 0.290801
55521.050077261003025, 0.00406384, -0.00313019, -0.00011389, 0.0685953, 0.517375, 0.29024
55521.083393565008009, 0.00406364, -0.00313441, -0.000111719, 0.0689541, 0.518776, 0.288668
55521.116709956004343, 0.00405344, -0.00313495, -0.000113436, 0.0693011, 0.51909, 0.287537
55521.150026261006133, 0.00403831, -0.00313553, -0.000115166, 0.0695268, 0.519918, 0.286582
55521.183342565003841, 0.00403409, -0.00313557, -0.00011488, 0.0697288, 0.520037, 0.285861
55521.21665895600745, 0.00404061, -0.00313491, -0.000111103, 0.0699453, 0.519784, 0.284935
55521.24997526100924, 0.00405062, -0.00313445, -0.000104146, 0.0699274, 0.519888, 0.284429
55521.283291589003056, 0.0040464, -0.00313676, -0.000107776, 0.0696849, 0.520351, 0.285464
55521.31660792700859, 0.00404578, -0.00313706, -0.000105653, 0.0697332, 0.520506, 0.285195
55521.349924256006489, 0.00406372, -0.00313083, -9.09749e-05, 0.0696011, 0.519417, 0.284897
55521.383390589006012, 0.00405465, -0.00313199, -9.33135e-05, 0.0696302, 0.519472, 0.284902
55521.41670692300977, 0.00405364, -0.00313299, -9.21765e-05, 0.0696015, 0.519739, 0.284918
55521.450023289005912, 0.00406462, -0.00312927, -8.70784e-05, 0.0693913, 0.51938, 0.285332
55521.48333962300967, 0.00406672, -0.00313012, -8.60466e-05, 0.0693986, 0.51952, 0.28529
55521.516655956009345, 0.00406594, -0.00313762, -8.39686e-05, 0.0690682, 0.52096, 0.285905
55521.549972256005276, 0.00406189, -0.00313582, -8.27402e-05, 0.0688313, 0.521049, 0.286332
55521.583288589004951, 0.00404931, -0.0031405, -8.24852e-05, 0.0686311, 0.522052, 0.286625
55521.616604956005176, 0.00403054, -0.00314865, -9.31886e-05, 0.0684352, 0.522934, 0.286922
55521.649921261006966, 0.00401779, -0.00315113, -0.000104546, 0.0682591, 0.523132, 0.287107
55521.683237561002898, 0.0039661, -0.00317617, -0.000119486, 0.0680065, 0.525444, 0.287201
55521.716553956008283, 0.00395795, -0.00317781, -0.000125902, 0.0679785, 0.525544, 0.287108
55521.750020256004063, 0.00391533, -0.00318709, -0.000143452, 0.0678212, 0.526296, 0.286877
55521.783336622007482, 0.0038585, -0.00319732, -0.000168914, 0.0678738, 0.526846, 0.286065
55521.816652956003963, 0.0038585, -0.00319732, -0.000168914, 0.0678738, 0.526846, 0.286065
55521.849969289003639, 0.00380862, -0.00321226, -0.000193477, 0.0680203, 0.527438, 0.285003
55521.883285622003314, 0.00374508, -0.00322287, -0.000224035, 0.0681956, 0.52779, 0.283616
55521.916601894008636, 0.0036465, -0.00323142, -0.000285448, 0.0687171, 0.527955, 0.280436
55521.949918261008861, 0.00359263, -0.0032566, -0.000309809, 0.0689807, 0.528522, 0.279041
55521.983234594008536, 0.00356442, -0.00326282, -0.000324274, 0.0691744, 0.528529, 0.278121
55522.016550956002902, 0.00352431, -0.00326165, -0.000350085, 0.0696303, 0.528257, 0.276227
55522.049867289009853, 0.00347214, -0.00326231, -0.000382684, 0.0699648, 0.528081, 0.274223
55522.08333362700796, 0.00345181, -0.00327167, -0.000389752, 0.0701905, 0.527986, 0.273458
55522.116649956005858, 0.00343496, -0.00327065, -0.000399038, 0.0703522, 0.52785, 0.272746
55522.149966256009066, 0.00341398, -0.00327443, -0.00041316, 0.0704121, 0.527799, 0.272082
55522.183282594007323, 0.00339391, -0.0032768, -0.000428963, 0.0703655, 0.527798, 0.271615
55522.216598922008416, 0.00339149, -0.00327416, -0.000431014, 0.070237, 0.527861, 0.271863
55522.24991522700293, 0.00334946, -0.00327255, -0.000455303, 0.0701264, 0.52774, 0.271351
55522.283231589004572, 0.00331669, -0.00327495, -0.000474741, 0.0701449, 0.527551, 0.270707
55522.316547956004797, 0.00331438, -0.00325938, -0.000482097, 0.0700216, 0.527554, 0.270833
55522.349864260009781, 0.00330324, -0.00326433, -0.000484621, 0.0700454, 0.527515, 0.270721
55522.383180694007024, 0.00321954, -0.00327391, -0.000521813, 0.0706521, 0.526639, 0.268212
55522.416496956007904, 0.0031468, -0.00324588, -0.000571097, 0.0709289, 0.52576, 0.26651
55522.449963256003684, 0.00314661, -0.00324023, -0.000574583, 0.0709463, 0.525667, 0.266418
55522.483279622007103, 0.00309686, -0.00317204, -0.000601663, 0.071321, 0.524416, 0.264933
55522.516600308008492, 0.00309491, -0.00317032, -0.000604094, 0.0713183, 0.524361, 0.264945
55522.54991228900326, 0.00306162, -0.00309068, -0.000633983, 0.0713723, 0.52279, 0.264793
55522.58322859400505, 0.00304793, -0.00306857, -0.00064421, 0.0713538, 0.522269, 0.264932
55522.616544922006142, 0.00302893, -0.00303584, -0.000653598, 0.0715894, 0.521178, 0.264207
55522.649861289006367, 0.00302414, -0.00301141, -0.000658147, 0.0715813, 0.520539, 0.264313
55522.683177622006042, 0.00303465, -0.00299369, -0.000653866, 0.0713658, 0.52035, 0.26503
55522.716493922009249, 0.00304311, -0.00299106, -0.000649121, 0.0712539, 0.520354, 0.2654
55522.749810289009474, 0.0030513, -0.00299323, -0.00064316, 0.0712574, 0.520316, 0.265308
55522.783276622008998, 0.00306932, -0.00299622, -0.000629541, 0.0711187, 0.520755, 0.265329
55522.816592956005479, 0.00307084, -0.00300248, -0.00062794, 0.0710716, 0.52132, 0.265336
55522.849909289005154, 0.00307063, -0.00300165, -0.000627864, 0.0710133, 0.521406, 0.265556
55522.883225594006944, 0.00307545, -0.00300165, -0.000625142, 0.0708636, 0.522016, 0.265736
55522.916541922008037, 0.00307418, -0.00300032, -0.000626535, 0.0707276, 0.522193, 0.266212
55522.949858260006295, 0.00307593, -0.00300022, -0.000625975, 0.07066, 0.522521, 0.26627
55522.983174622007937, 0.00307819, -0.00299638, -0.000624366, 0.0704905, 0.521797, 0.267091
55523.016490922003868, 0.00307207, -0.00299644, -0.000627098, 0.0703962, 0.521945, 0.267602
55523.049807289004093, 0.00306371, -0.00299552, -0.000630125, 0.070291, 0.521793, 0.268287
55523.083123622003768, 0.00304791, -0.00299824, -0.000636501, 0.0702652, 0.523122, 0.268371
55523.116439956007525, 0.00304684, -0.00299801, -0.000637661, 0.0702664, 0.52282, 0.268724
55523.149906289007049, 0.00302381, -0.00299926, -0.000647176, 0.0701442, 0.525458, 0.268845
55523.183222594008839, 0.00297465, -0.00300324, -0.000667593, 0.0699799, 0.533132, 0.267359
55523.216538913009572, 0.00296809, -0.00300222, -0.000660368, 0.0699404, 0.531503, 0.267315
55523.249855260008189, 0.00296393, -0.00300226, -0.000660379, 0.0698987, 0.532222, 0.266939
55523.283171589006088, 0.00295806, -0.00300193, -0.000667088, 0.0698299, 0.534715, 0.266707
55523.316487956006313, 0.00295791, -0.00300167, -0.000660038, 0.069891, 0.534271, 0.265157
55523.349804294004571, 0.00294703, -0.00300137, -0.00067077, 0.0703368, 0.537543, 0.262909
55523.383120622005663, 0.00293464, -0.00300026, -0.000672506, 0.0705592, 0.538822, 0.261087
55523.41643692200887, 0.00292542, -0.00300138, -0.000667249, 0.0705518, 0.537522, 0.260147
55523.449753260007128, 0.00292221, -0.00300013, -0.000670473, 0.070513, 0.539647, 0.259017
55523.483219622008619, 0.0029155, -0.00299808, -0.000680062, 0.0705187, 0.543019, 0.258601
55523.516535894006665, 0.00291579, -0.00299214, -0.000694943, 0.0705785, 0.54784, 0.25868
55523.549852260010084, 0.00291557, -0.00298475, -0.000706541, 0.0709893, 0.552515, 0.256113
55523.583168589007983, 0.00291532, -0.00297753, -0.000714746, 0.0714115, 0.556741, 0.253182
55523.616484922007658, 0.00292314, -0.00297485, -0.000719564, 0.0716407, 0.559013, 0.251774
55523.649801260005916, 0.00292439, -0.00297124, -0.00072382, 0.0718606, 0.561554, 0.250055
55523.683117589003814, 0.00292421, -0.00296591, -0.000728458, 0.0720736, 0.564453, 0.248393
55523.716433927009348, 0.00293869, -0.00295705, -0.000734912, 0.0722365, 0.570486, 0.245676
55523.749750289003714, 0.00293862, -0.00295332, -0.000737669, 0.0724197, 0.574487, 0.242003
55523.783066622003389, 0.00293436, -0.00295131, -0.000738201, 0.0726826, 0.576457, 0.239067
55523.816532955002913, 0.00293589, -0.00294844, -0.000739745, 0.0728409, 0.578123, 0.237755
55523.84984928900667, 0.00294165, -0.00294596, -0.000740406, 0.0729036, 0.57973, 0.23693
55523.88316559400846, 0.00294376, -0.00294424, -0.000740801, 0.0728499, 0.5813, 0.236364
55523.916481922009552, 0.00293757, -0.00293918, -0.000742254, 0.072949, 0.58367, 0.235202
55523.949798289009777, 0.00294732, -0.00293804, -0.00073906, 0.0727785, 0.585558, 0.234261
55523.983114594004292, 0.00294505, -0.00293367, -0.000739808, 0.0725456, 0.588254, 0.234971
55524.016430955009128, 0.00295686, -0.00293157, -0.000736829, 0.0721965, 0.590595, 0.234951
55524.049748032004572, 0.00296503, -0.00293203, -0.00073492, 0.0719733, 0.590911, 0.235143
55524.083063622005284, 0.00297055, -0.00293122, -0.000734594, 0.0718488, 0.59088, 0.235538
55524.116379955004959, 0.00297063, -0.00293025, -0.00073489, 0.0718335, 0.591619, 0.235691
55524.149696289008716, 0.00298329, -0.0029324, -0.000733116, 0.0716047, 0.591078, 0.23607
55524.183162594003079, 0.00297158, -0.00293075, -0.000736875, 0.0714784, 0.592133, 0.237622
55524.216478955007915, 0.00297283, -0.00293388, -0.0007378, 0.0712159, 0.591061, 0.238678
55524.249795289004396, 0.00296454, -0.00293474, -0.000739382, 0.0711661, 0.590576, 0.239169
55524.283112046003225, 0.00290275, -0.00293795, -0.000751876, 0.0709224, 0.589212, 0.242369
55524.316427955003746, 0.00286505, -0.00294628, -0.000765692, 0.07048, 0.585636, 0.246703
55524.349744846003887, 0.00284074, -0.00294989, -0.000771367, 0.0703169, 0.583725, 0.248134
55524.383060589003435, 0.00282274, -0.00296387, -0.00077568, 0.0695309, 0.579862, 0.251596
55524.41637692200311, 0.00281901, -0.00296552, -0.000778065, 0.0694832, 0.579028, 0.252147
55524.449693870003102, 0.0027921, -0.00297383, -0.000793748, 0.0692233, 0.575431, 0.25556
55524.48300962200301, 0.00274876, -0.00298005, -0.000814963, 0.0691463, 0.573415, 0.259495
55524.516475922006066, 0.00267774, -0.00298572, -0.000844545, 0.0693517, 0.571258, 0.263519
55524.549792289006291, 0.00267463, -0.00298681, -0.000845452, 0.0692945, 0.570783, 0.263753
55524.583108622005966, 0.00264507, -0.00299048, -0.000851758, 0.0690976, 0.565638, 0.263764
55524.616424955005641, 0.00262816, -0.00299354, -0.000858406, 0.0690444, 0.563834, 0.264336
55524.649741260007431, 0.00262534, -0.00299359, -0.000859174, 0.0690874, 0.563624, 0.264236
55524.683057560003363, 0.002619, -0.00299378, -0.000860545, 0.0690927, 0.562271, 0.264018
55524.716373955008748, 0.00261211, -0.00299409, -0.000862574, 0.0690337, 0.560529, 0.263968
55524.74969028900523, 0.00260467, -0.00299441, -0.000864962, 0.0689893, 0.558504, 0.263832
55524.783006593002938, 0.00258186, -0.00299451, -0.000870045, 0.069166, 0.557937, 0.263623
55524.81632295500458, 0.0025571, -0.0029954, -0.000877719, 0.0692897, 0.555937, 0.263392
55524.849639289008337, 0.002568, -0.00299479, -0.000873838, 0.0691197, 0.555493, 0.263498
55524.883105622007861, 0.00257175, -0.00299443, -0.000872546, 0.069017, 0.555236, 0.263692
55524.916421922003792, 0.00254777, -0.00299483, -0.000876835, 0.0692157, 0.553847, 0.26299
55524.949738289004017, 0.00253716, -0.00299494, -0.000880052, 0.0691738, 0.552368, 0.263125
55524.983054589007224, 0.0025235, -0.00299496, -0.000883893, 0.0690577, 0.550855, 0.263589
55525.016370955003367, 0.00251201, -0.00299602, -0.000886805, 0.0690079, 0.550185, 0.264052
55525.049687289007124, 0.00251171, -0.00299455, -0.000888544, 0.0688459, 0.54915, 0.264489
55525.083003589003056, 0.00250755, -0.00299343, -0.00088751, 0.0688189, 0.547513, 0.264146
55525.116319955006475, 0.00250312, -0.00299291, -0.000888741, 0.0687179, 0.546695, 0.264458
55525.149636260008265, 0.00250129, -0.0029921, -0.000888822, 0.0686698, 0.546312, 0.264533
55525.18295259300794, 0.00249414, -0.00299286, -0.000891195, 0.0686723, 0.545122, 0.26474
55525.21641892700427, 0.00249843, -0.00299229, -0.000891145, 0.0686099, 0.544524, 0.264877
55525.249736031008069, 0.00250114, -0.00299025, -0.000889604, 0.0684713, 0.544142, 0.265044
55525.28305159300362, 0.00249284, -0.00298864, -0.000892655, 0.0683687, 0.545549, 0.265736
55525.316367927007377, 0.00248481, -0.00298777, -0.000894733, 0.0682471, 0.545699, 0.266451
55525.349684712004091, 0.00248974, -0.00298575, -0.000893884, 0.0681703, 0.54586, 0.266556
55525.383000593006727, 0.00247929, -0.00297957, -0.000896226, 0.0680386, 0.54803, 0.266813
55525.416316955008369, 0.0024754, -0.00297751, -0.000896698, 0.0679293, 0.54821, 0.267124
55525.449633260002884, 0.00247282, -0.00297537, -0.000895909, 0.0677799, 0.547775, 0.267224
55525.482949589008058, 0.00247198, -0.00297276, -0.000896043, 0.0675595, 0.547428, 0.267777
55525.516265955004201, 0.00247978, -0.00296713, -0.000893389, 0.0674222, 0.548116, 0.267134
55525.549582260005991, 0.00246699, -0.00296209, -0.000893917, 0.0673157, 0.54967, 0.266621
55525.583048622007482, 0.00246386, -0.00295838, -0.000894954, 0.0671966, 0.550591, 0.266752
55525.616364955007157, 0.00246647, -0.00295501, -0.00090111, 0.0673064, 0.552433, 0.266855
55525.649681260008947, 0.00246487, -0.00295761, -0.000908823, 0.0674555, 0.552916, 0.268722
55525.682997593008622, 0.00248015, -0.00296099, -0.000908468, 0.0676425, 0.552355, 0.268838
55525.71631392200652, 0.00248996, -0.00296158, -0.000910366, 0.0678504, 0.552669, 0.268399
55525.749630289006745, 0.00249077, -0.00296054, -0.000913015, 0.0680487, 0.553527, 0.268376
55525.782946622006421, 0.00250068, -0.00296014, -0.000913437, 0.0683889, 0.553918, 0.267266
55525.816262955006096, 0.00250419, -0.00295726, -0.00091457, 0.0687697, 0.555016, 0.265664
55525.849579289009853, 0.00250735, -0.00295617, -0.000916706, 0.0690148, 0.555586, 0.264884
55525.882895593007561, 0.00249888, -0.00295451, -0.000920166, 0.0691247, 0.556353, 0.264971
55525.916361955009052, 0.00249997, -0.00295674, -0.00092409, 0.0691066, 0.555844, 0.26615
55525.949678255004983, 0.00249926, -0.00295578, -0.00092573, 0.0693165, 0.556253, 0.265363
55525.98299458900874, 0.00250429, -0.00295264, -0.000925772, 0.0696552, 0.557238, 0.263502
55526.016310955004883, 0.00250133, -0.0029484, -0.000923558, 0.0698068, 0.558911, 0.261725
55526.049627288004558, 0.00252175, -0.00294664, -0.000919444, 0.0696738, 0.560402, 0.26091
55526.082943622008315, 0.00252444, -0.00294602, -0.000917419, 0.0696241, 0.560702, 0.260653
55526.116259922004247, 0.00253371, -0.0029455, -0.00091461, 0.0694695, 0.561514, 0.260604
55526.149576260009781, 0.00255274, -0.00294456, -0.000908884, 0.0691595, 0.56253, 0.260335
55526.182892622004147, 0.00254816, -0.00294405, -0.000907616, 0.0689448, 0.563704, 0.260727
55526.216208955003822, 0.00253562, -0.0029443, -0.000910442, 0.0688173, 0.563749, 0.261665
55526.249525288003497, 0.00252513, -0.0029452, -0.000912897, 0.0685652, 0.563221, 0.262522
55526.282991622007103, 0.00250243, -0.00294771, -0.000918408, 0.0682703, 0.563098, 0.264161
55526.316307955006778, 0.00249727, -0.00295504, -0.000921178, 0.0676398, 0.560585, 0.265709
55526.349624255009985, 0.00249671, -0.00295466, -0.000921889, 0.0676974, 0.560738, 0.265719
55526.382940593008243, 0.00247828, -0.00295795, -0.000927527, 0.0675414, 0.560301, 0.266797
55526.416256955009885, 0.00245921, -0.00296251, -0.000936131, 0.0674734, 0.559048, 0.268039
55526.44957328800956, 0.00244734, -0.00296859, -0.000947204, 0.067331, 0.556999, 0.269431
55526.482889593004074, 0.00242018, -0.00297355, -0.000955181, 0.0671542, 0.556831, 0.270756
55526.516205927007832, 0.00240883, -0.00297718, -0.000961562, 0.067035, 0.555533, 0.271416
55526.549522465007612, 0.00240248, -0.00298042, -0.000970904, 0.066976, 0.553074, 0.271902
55526.582838588008599, 0.00239607, -0.00298494, -0.000983574, 0.0668641, 0.549525, 0.272547
55526.616304955008673, 0.00239484, -0.00298483, -0.0009888, 0.0668062, 0.547218, 0.272375
55526.649621288008348, 0.0023943, -0.00298545, -0.000997167, 0.0668247, 0.544748, 0.272408
55526.682937593002862, 0.00239539, -0.00298564, -0.00100561, 0.06693, 0.54297, 0.272556
55526.716253922008036, 0.00238721, -0.00298774, -0.00101321, 0.0669197, 0.541714, 0.273034
55526.749570288004179, 0.00238552, -0.00298812, -0.00101545, 0.0669654, 0.541707, 0.273182
55526.782886588007386, 0.00237942, -0.00298816, -0.0010263, 0.067079, 0.540222, 0.273499
55526.816202922003868, 0.00237047, -0.00298947, -0.00103948, 0.0673059, 0.539456, 0.274191
55526.849519260009401, 0.00237025, -0.00298785, -0.00104155, 0.0674093, 0.539483, 0.27409
55526.882835565003916, 0.00236514, -0.00298685, -0.00104844, 0.0676052, 0.539553, 0.274246
55526.916151898003591, 0.00232582, -0.00298858, -0.0010898, 0.0683284, 0.538443, 0.276167
55526.949618288002966, 0.00230439, -0.00298364, -0.00111633, 0.0692373, 0.540373, 0.276678
55526.982934622006724, 0.00229696, -0.0029745, -0.00112995, 0.0699551, 0.541785, 0.27615
55527.016250955006399, 0.00228623, -0.00296556, -0.00114727, 0.0705389, 0.541039, 0.275688
55527.049567255009606, 0.00228011, -0.00296015, -0.00116045, 0.0709111, 0.540005, 0.275583
55527.082883622009831, 0.00228026, -0.0029604, -0.00115507, 0.0708588, 0.54044, 0.275257
55527.116199926007539, 0.00227404, -0.00296346, -0.00115456, 0.0709177, 0.542071, 0.275376
55527.149516231009329, 0.00226222, -0.00295758, -0.00116183, 0.0712953, 0.542412, 0.274425
55527.182832588005112, 0.00226239, -0.00295933, -0.00116178, 0.0712487, 0.542612, 0.274685
55527.21614896000392, 0.00225545, -0.00296041, -0.00116656, 0.0713545, 0.543203, 0.274798
55527.249465288005013, 0.00225868, -0.00296141, -0.00116753, 0.0713541, 0.543311, 0.274945
55527.28278162200877, 0.00221564, -0.0029594, -0.00118066, 0.0716904, 0.54336, 0.274513
55527.316247955008294, 0.00220403, -0.00295861, -0.00118729, 0.071897, 0.543639, 0.274166
55527.349564255004225, 0.0022035, -0.00295874, -0.00118665, 0.0718325, 0.543367, 0.274412
55527.382881541008828, 0.00220868, -0.00296166, -0.00118159, 0.0714819, 0.54295, 0.275473
55527.416196922007657, 0.00221008, -0.00296173, -0.00117937, 0.0713928, 0.543019, 0.275583
55527.4495132880038, 0.00222298, -0.00296216, -0.00117256, 0.0711211, 0.543436, 0.275854
55527.482829564003623, 0.00224251, -0.00296355, -0.0011693, 0.0708655, 0.544152, 0.276502
55527.516145955007232, 0.00224793, -0.00296342, -0.00116709, 0.0707777, 0.543943, 0.276506
55527.549462288006907, 0.00228366, -0.00296219, -0.00116205, 0.0703524, 0.544554, 0.277415
55527.582778617004806, 0.00232005, -0.00296238, -0.0011594, 0.0700036, 0.54686, 0.277743
55527.616094955003064, 0.00233251, -0.00296207, -0.00115781, 0.0697817, 0.547306, 0.278322
55527.649561260004702, 0.00235639, -0.00296089, -0.00115797, 0.0695448, 0.548593, 0.279051
55527.682877593004378, 0.00237501, -0.00295965, -0.00115639, 0.0694262, 0.549565, 0.278799
55527.71619395500602, 0.00238635, -0.00295893, -0.0011563, 0.069275, 0.550152, 0.278997
55527.749510255009227, 0.00240952, -0.00295656, -0.00115866, 0.0691573, 0.552013, 0.279101
55527.782826598006068, 0.00241845, -0.00295519, -0.00115839, 0.0690275, 0.552708, 0.279041
55527.816142922005383, 0.00243473, -0.00295286, -0.00115726, 0.0689003, 0.553834, 0.27857
55527.849459288008802, 0.00245401, -0.00294893, -0.00115849, 0.0687028, 0.555875, 0.278318
55527.882775593003316, 0.00247608, -0.00294646, -0.00115804, 0.0686597, 0.557475, 0.277181
55527.916091926002991, 0.00248514, -0.00294426, -0.00115904, 0.0686212, 0.558905, 0.276585
55527.949408288004634, 0.00251123, -0.00293996, -0.0011594, 0.0686008, 0.560947, 0.275338
55527.982724864006741, 0.00252007, -0.00293678, -0.0011665, 0.0686992, 0.563118, 0.275288
55528.016190922004171, 0.00252864, -0.0029338, -0.00117486, 0.0691156, 0.565053, 0.27446
55528.04950728800759, 0.00252698, -0.00293191, -0.00117822, 0.0692635, 0.566033, 0.273776
55528.082823622004071, 0.00252751, -0.00293155, -0.0011804, 0.0692829, 0.566418, 0.273963
55528.116139926009055, 0.00253671, -0.00293192, -0.00118158, 0.0693197, 0.566662, 0.274118
55528.149456260005536, 0.00254137, -0.00293228, -0.00118347, 0.0693421, 0.567061, 0.27419
55528.182772588006628, 0.0025544, -0.00293334, -0.001186, 0.0694956, 0.567477, 0.273642
55528.216088922003109, 0.00256185, -0.00293264, -0.00118722, 0.0695298, 0.568138, 0.273377
55528.249405255010061, 0.00257149, -0.00293243, -0.00118854, 0.069616, 0.568518, 0.273039
55528.282721621006203, 0.0025762, -0.00293091, -0.00119092, 0.0696713, 0.569271, 0.272953
55528.316037921009411, 0.0026016, -0.00292848, -0.00119179, 0.0696825, 0.570948, 0.272489
55528.349508650004282, 0.00262286, -0.00292676, -0.00119224, 0.0696887, 0.572156, 0.272253
55528.382820593003999, 0.00263734, -0.00292346, -0.00119293, 0.069782, 0.573716, 0.271584
55528.416136955005641, 0.00264407, -0.00292289, -0.00119312, 0.0697869, 0.574257, 0.271521
55528.449453231005464, 0.0026532, -0.00292013, -0.00119291, 0.0696501, 0.575783, 0.271968
55528.482769621004991, 0.00267354, -0.00291627, -0.00119073, 0.0694939, 0.57774, 0.272327
55528.516085955008748, 0.00267929, -0.00291552, -0.00119032, 0.0694982, 0.578317, 0.272368
55528.549402855009248, 0.00268101, -0.00291676, -0.00119143, 0.0695026, 0.578245, 0.272851
55528.582718588004354, 0.00269528, -0.00291524, -0.00118753, 0.0693876, 0.579362, 0.272555
55528.616034955004579, 0.00270857, -0.0029147, -0.00118518, 0.0692942, 0.579676, 0.272389
55528.649351288004254, 0.00270486, -0.00291478, -0.00118797, 0.0690765, 0.581088, 0.274248
55528.68266762100393, 0.0027003, -0.0029158, -0.00118796, 0.0688664, 0.581237, 0.274806
55528.716133921006985, 0.00270233, -0.00291447, -0.00118757, 0.0689348, 0.581451, 0.274618
55528.749450260009326, 0.00269039, -0.00291157, -0.00119041, 0.0689625, 0.582684, 0.275042
55528.782766621006886, 0.0026526, -0.00291589, -0.00119819, 0.0683874, 0.582868, 0.27652
55528.816082917008316, 0.00265287, -0.00291615, -0.00119856, 0.0683763, 0.582774, 0.276577
55528.849399255006574, 0.00262562, -0.00292253, -0.00121078, 0.068306, 0.581893, 0.278688
55528.882715593004832, 0.00259389, -0.00293009, -0.00122205, 0.0678061, 0.580635, 0.280052
55528.916031955006474, 0.00258477, -0.00293143, -0.00122393, 0.0677569, 0.580939, 0.280458
55528.949348259004182, 0.00254521, -0.00293996, -0.0012439, 0.0676706, 0.579522, 0.282518
55528.982664621005824, 0.00251292, -0.00294665, -0.00125374, 0.0673208, 0.579595, 0.283621
55529.01598169200588, 0.00246927, -0.00295479, -0.00126407, 0.0667275, 0.58019, 0.284534
55529.049451086008048, 0.00243666, -0.00295956, -0.00127567, 0.0666316, 0.579636, 0.285388
55529.082770471010008, 0.00238619, -0.00296818, -0.00129308, 0.0664296, 0.579189, 0.28675
55529.11608980200981, 0.00237638, -0.00297006, -0.00129541, 0.0664071, 0.579238, 0.287032
55529.149409144003585, 0.00237492, -0.00296904, -0.00130301, 0.0664925, 0.578585, 0.287044
55529.182728537009098, 0.0023778, -0.00296803, -0.00130526, 0.0666181, 0.578402, 0.287141
55529.216047931004141, 0.00236606, -0.00296947, -0.00130879, 0.066803, 0.57841, 0.287564
55529.249367296004493, 0.00235724, -0.00297106, -0.00131058, 0.0667746, 0.578465, 0.287741
55529.282686661004846, 0.00235389, -0.00296837, -0.00131095, 0.0669528, 0.578407, 0.287658
55529.316006026005198, 0.00235546, -0.0029667, -0.00131356, 0.0672631, 0.578351, 0.287845
55529.349325392009632, 0.00234314, -0.00296545, -0.00131788, 0.0676841, 0.578433, 0.288136
55529.382644728008017, 0.00234248, -0.00296531, -0.00131937, 0.0677217, 0.578382, 0.288174
55529.416114074003417, 0.00233696, -0.00294943, -0.00132585, 0.0677847, 0.576801, 0.286763
55529.44943350100948, 0.00233042, -0.00294611, -0.00133212, 0.067825, 0.576274, 0.28653
55529.482752837007865, 0.00231237, -0.00293404, -0.00135352, 0.0679382, 0.574394, 0.285668
55529.516072231002909, 0.00230481, -0.00293382, -0.00135523, 0.067979, 0.574292, 0.285662
55529.54939156700857, 0.00230123, -0.00292991, -0.00135738, 0.0680492, 0.573944, 0.285352
55529.582710932008922, 0.00229937, -0.00292456, -0.00136082, 0.0681257, 0.57346, 0.284995
55529.616030293007498, 0.00230109, -0.00292769, -0.00135675, 0.0681196, 0.573835, 0.285169
55529.649349691004318, 0.00227177, -0.00293351, -0.00135585, 0.0681767, 0.574127, 0.285503
55529.682669028006785, 0.0022568, -0.00293039, -0.00136219, 0.0680639, 0.57392, 0.285419
55529.715988421005022, 0.00225496, -0.00292623, -0.00136954, 0.0679612, 0.573527, 0.285363
55529.749457748002897, 0.0022584, -0.00292711, -0.00137129, 0.0678363, 0.573836, 0.285469
55529.782777137006633, 0.00225552, -0.00292363, -0.00138066, 0.0677302, 0.573586, 0.285566
55529.81609653000487, 0.00225169, -0.00292156, -0.00138399, 0.0676632, 0.573636, 0.285541
55529.849415896009305, 0.00224791, -0.00291641, -0.00139123, 0.0675286, 0.57369, 0.285487
55529.882735318009509, 0.00225508, -0.00291373, -0.00139362, 0.0674441, 0.573921, 0.285412
55529.916054626010009, 0.0022502, -0.00290374, -0.00140232, 0.067229, 0.574499, 0.285168
55529.949373962008394, 0.00226476, -0.00289614, -0.00140748, 0.0670227, 0.575301, 0.284859
55529.98269332300697, 0.00226908, -0.00289454, -0.00140946, 0.0669509, 0.575748, 0.284786
55530.016011944004276, 0.00226057, -0.00289366, -0.00141526, 0.0668406, 0.576376, 0.284826
55530.049328288005199, 0.00225922, -0.00289218, -0.00141551, 0.0668397, 0.576085, 0.284836
55530.082644621004874, 0.00225796, -0.00289573, -0.00141178, 0.0669392, 0.575779, 0.284943
55530.116110893010045, 0.00225496, -0.00289876, -0.00141055, 0.0670131, 0.575545, 0.28517
55530.149427259006188, 0.00224985, -0.00289715, -0.00141338, 0.0669664, 0.575745, 0.285189
55530.18274362100783, 0.00224293, -0.00288957, -0.00141284, 0.0668345, 0.57593, 0.284357
55530.216059921003762, 0.00223361, -0.00288864, -0.00141694, 0.066783, 0.576234, 0.284426
55530.249376288003987, 0.00224078, -0.00288959, -0.00141978, 0.0667664, 0.576616, 0.28462
55530.282692621003662, 0.00224206, -0.00289217, -0.00142145, 0.0668006, 0.576884, 0.284804
55530.316008921006869, 0.00223908, -0.00289612, -0.00142368, 0.0668607, 0.57717, 0.284953
55530.34932525500335, 0.00225635, -0.00289987, -0.00142014, 0.0670194, 0.57711, 0.284911
55530.382641621006769, 0.00226461, -0.00290342, -0.0014203, 0.0671181, 0.57721, 0.285157
55530.415957926008559, 0.00226996, -0.00290446, -0.00141871, 0.0671905, 0.57734, 0.284974
55530.44942428801005, 0.00226221, -0.00290746, -0.0014181, 0.067381, 0.577952, 0.284605
55530.482740926003316, 0.00226452, -0.00290693, -0.00141532, 0.0675378, 0.577901, 0.284463
55530.516056921005656, 0.00228135, -0.00290722, -0.00141051, 0.0676968, 0.577662, 0.284289
55530.54937323100603, 0.0022831, -0.00290797, -0.00140697, 0.0678032, 0.578201, 0.283614
55530.582689593007672, 0.00225732, -0.00290991, -0.00140176, 0.0679334, 0.579844, 0.282028
55530.616005921008764, 0.00224969, -0.00291071, -0.0013998, 0.0679818, 0.580532, 0.281476
55530.649322288008989, 0.00224845, -0.00291014, -0.00139649, 0.0680152, 0.580752, 0.280995
55530.682638621008664, 0.00224287, -0.00291022, -0.00139557, 0.0679801, 0.580967, 0.280702
55530.715954954008339, 0.00223891, -0.00291044, -0.00139345, 0.067985, 0.581161, 0.280409
55530.749271226006385, 0.00224542, -0.00290845, -0.00138925, 0.0680543, 0.580931, 0.280142
55530.782737621004344, 0.00222699, -0.00290984, -0.00138522, 0.0680491, 0.581505, 0.279465
55530.816053954004019, 0.00221102, -0.00291282, -0.00138794, 0.0679519, 0.581701, 0.279506
55530.849370288007776, 0.00219914, -0.00291084, -0.0013846, 0.0679176, 0.581516, 0.278936
55530.882686593009566, 0.00220156, -0.00291405, -0.00138574, 0.0678322, 0.581801, 0.278864
55530.916002954007126, 0.00220691, -0.00292689, -0.00139664, 0.0676008, 0.582753, 0.279603
55530.949319821003883, 0.0022103, -0.00292675, -0.00140297, 0.0673917, 0.582397, 0.27962
55530.982635593005398, 0.00223084, -0.00292883, -0.00140963, 0.0672411, 0.581887, 0.279847
55531.015951926005073, 0.00223311, -0.00292942, -0.00141083, 0.0672121, 0.581801, 0.279889
55531.049268288006715, 0.00223881, -0.00293106, -0.00142061, 0.0670726, 0.581214, 0.280112
55531.082584593008505, 0.00224342, -0.00293326, -0.00143087, 0.0670015, 0.580599, 0.280498
55531.115900954006065, 0.0022753, -0.00293587, -0.00144976, 0.0668765, 0.579253, 0.281204
55531.149367254009121, 0.00228214, -0.00293808, -0.00145702, 0.066849, 0.578918, 0.281499
55531.182683621009346, 0.00228315, -0.00293812, -0.00145783, 0.0668516, 0.578864, 0.281534
55531.215999954009021, 0.00231918, -0.00293794, -0.00147222, 0.0667678, 0.577657, 0.281899
55531.249316259003535, 0.00235796, -0.00293859, -0.00148486, 0.0667605, 0.576761, 0.282395
55531.28263259200321, 0.00237277, -0.00293599, -0.00148836, 0.066797, 0.57638, 0.282532
55531.315948897005001, 0.00238162, -0.00293386, -0.00149087, 0.0668724, 0.57613, 0.2827
55531.349268550009583, 0.00240182, -0.0029288, -0.00149684, 0.0671865, 0.575725, 0.283285
55531.382581588004541, 0.0024061, -0.00293045, -0.00149982, 0.0673121, 0.575656, 0.283594
55531.41589795400796, 0.00240979, -0.00292732, -0.00149967, 0.0673747, 0.575553, 0.283619
55531.449214288004441, 0.00243217, -0.00292826, -0.00150962, 0.0674132, 0.575035, 0.283935
55531.482680621003965, 0.0024291, -0.00292804, -0.00151226, 0.0675834, 0.574975, 0.284117
55531.515996926005755, 0.00242512, -0.00292519, -0.00151001, 0.0678024, 0.575085, 0.284196
55531.549313492003421, 0.00242431, -0.00292485, -0.00150956, 0.0678482, 0.57511, 0.284202
55531.582629592005105, 0.00243786, -0.00292798, -0.00151665, 0.0680999, 0.575051, 0.284645
55531.615945954006747, 0.00243107, -0.00292771, -0.00151852, 0.0682738, 0.575061, 0.284778
55531.649263573010103, 0.00240742, -0.00292783, -0.00151423, 0.0686239, 0.575455, 0.284795
55531.682578588006436, 0.00240477, -0.00292689, -0.0015146, 0.0686918, 0.575381, 0.284812
55531.715894926004694, 0.0024129, -0.00292152, -0.00152037, 0.0687946, 0.574889, 0.284951
55531.749211226007901, 0.00244168, -0.00291318, -0.00154103, 0.0689568, 0.573714, 0.285626
55531.782527592004044, 0.00241144, -0.00291248, -0.00155416, 0.0690208, 0.573133, 0.285828
55531.815843954005686, 0.00241105, -0.00291397, -0.00155431, 0.0689974, 0.57319, 0.28585
55531.849310269004491, 0.00236305, -0.00292508, -0.00155258, 0.0691975, 0.574059, 0.285924
55531.882626621008967, 0.0023564, -0.00292232, -0.00155445, 0.0690585, 0.573866, 0.285837
55531.915942911007733, 0.00235078, -0.00291905, -0.0015554, 0.068988, 0.573632, 0.285723
55531.949259297005483, 0.00234676, -0.00291657, -0.00155504, 0.0689454, 0.573549, 0.285627
55531.982575592010107, 0.00233823, -0.00291278, -0.00155881, 0.0686952, 0.573529, 0.285597
55532.015891954004474, 0.00234155, -0.00291564, -0.00155825, 0.0685966, 0.574132, 0.285512
55532.049208288008231, 0.00235165, -0.00291475, -0.00155626, 0.0684802, 0.574432, 0.285373
55532.082524588004162, 0.00238743, -0.0029173, -0.00155862, 0.0682168, 0.575406, 0.285319
55532.115840954007581, 0.00240758, -0.00291753, -0.00156114, 0.0681432, 0.575855, 0.285388
55532.149157230007404, 0.00241758, -0.00291843, -0.00156167, 0.0681316, 0.576123, 0.285388
55532.182623592008895, 0.00242249, -0.00291661, -0.00156235, 0.068046, 0.576274, 0.285302
55532.215939926005376, 0.00240599, -0.00291467, -0.00156198, 0.0680612, 0.575844, 0.285398
55532.249256288007018, 0.00240883, -0.00291563, -0.00156319, 0.0680938, 0.575785, 0.285581
55532.282572592004726, 0.0024064, -0.00291558, -0.00156493, 0.0681374, 0.575527, 0.285911
55532.315888954006368, 0.00240265, -0.00291344, -0.00156526, 0.0680567, 0.575661, 0.28562
55532.349205254009576, 0.00240966, -0.00291502, -0.00156591, 0.0680848, 0.575858, 0.285648
55532.382521621009801, 0.0024048, -0.00291615, -0.00156835, 0.0680855, 0.576437, 0.285341
55532.415837954009476, 0.0023878, -0.00291785, -0.00157018, 0.0680555, 0.577708, 0.284383
55532.449154254005407, 0.00236233, -0.00291511, -0.00156886, 0.067924, 0.57769, 0.283795
55532.482470588009164, 0.0023654, -0.0029205, -0.00156219, 0.0681287, 0.576779, 0.284063
55532.515786954005307, 0.00237093, -0.00292304, -0.00156229, 0.068228, 0.576827, 0.284118
55532.549253254008363, 0.00237892, -0.00292864, -0.00156252, 0.0684787, 0.577305, 0.283782
55532.582569621008588, 0.00237581, -0.00293609, -0.00155995, 0.0688186, 0.577556, 0.283008
55532.615885954008263, 0.00236845, -0.00294338, -0.0015622, 0.0692948, 0.578564, 0.282055
55532.649202288004744, 0.00237015, -0.00294344, -0.00156193, 0.0693018, 0.578604, 0.282077
55532.682518621004419, 0.00236552, -0.00294748, -0.00156353, 0.0695376, 0.579405, 0.281298
55532.71583492600621, 0.00236919, -0.00295278, -0.00156231, 0.0698103, 0.580404, 0.280224
55532.74915128700377, 0.00236469, -0.00295419, -0.00156439, 0.0700048, 0.581048, 0.279818
55532.782467621007527, 0.00234968, -0.00295733, -0.00156389, 0.070215, 0.581718, 0.278918
55532.815783954007202, 0.00233644, -0.00296, -0.00156205, 0.0703565, 0.582216, 0.277978
55532.849100287006877, 0.00232515, -0.00296223, -0.00155972, 0.070557, 0.582505, 0.277332
55532.882566592008516, 0.00231152, -0.00296445, -0.00155748, 0.070622, 0.582809, 0.276539
55532.915882954002882, 0.00233052, -0.00296861, -0.00155879, 0.0704835, 0.583727, 0.276223
55532.949199254006089, 0.00233402, -0.00296967, -0.00156138, 0.0703962, 0.584422, 0.276127
55532.982515621006314, 0.00232571, -0.00297085, -0.00156118, 0.0702109, 0.585468, 0.275282
55533.015831954005989, 0.00233461, -0.00297072, -0.00156281, 0.0700227, 0.585752, 0.275207
55533.049148287005664, 0.00234391, -0.00297118, -0.00156642, 0.0698672, 0.586144, 0.275408
55533.082464592007454, 0.00238177, -0.00297253, -0.00157485, 0.0696589, 0.586895, 0.276318
55533.115780921005353, 0.00240179, -0.00297265, -0.00157886, 0.0695587, 0.58692, 0.276919
55533.149097287008772, 0.00244734, -0.00297565, -0.00159176, 0.0693279, 0.587491, 0.278427
55533.182413621005253, 0.00249188, -0.00297723, -0.00160691, 0.069105, 0.587818, 0.280019
55533.21572992100846, 0.00252594, -0.00297843, -0.0016131, 0.0690188, 0.587369, 0.280952
55533.249196287004452, 0.00253032, -0.00297816, -0.00161425, 0.0690202, 0.587187, 0.28111
55533.282512621008209, 0.00254859, -0.00297989, -0.00162029, 0.068948, 0.587204, 0.281697
55533.315828954007884, 0.0025676, -0.00297974, -0.00162481, 0.0690453, 0.587076, 0.282407
55533.349145259009674, 0.0025795, -0.00297962, -0.00162726, 0.0690563, 0.586752, 0.282689
55533.38246162100404, 0.00258274, -0.00297961, -0.00162878, 0.0690446, 0.586584, 0.282812
55533.415778187008982, 0.00258196, -0.00298195, -0.00163011, 0.0689341, 0.586742, 0.28283
55533.449094254006923, 0.00259317, -0.00298509, -0.00163406, 0.0689269, 0.586985, 0.283214
55533.482410621007148, 0.00260088, -0.00298631, -0.00163674, 0.0688695, 0.586859, 0.28335
55533.515726921003079, 0.00260331, -0.00298616, -0.00163768, 0.0688757, 0.586767, 0.283389
55533.54904325401003, 0.00261142, -0.00298683, -0.00164062, 0.0689939, 0.586852, 0.283689
55533.582509587009554, 0.00262455, -0.00298719, -0.00164877, 0.0692459, 0.586955, 0.284231
55533.615825954009779, 0.00264058, -0.00298568, -0.00165506, 0.0698172, 0.587599, 0.284936
55533.649142259004293, 0.00265319, -0.00298663, -0.00165904, 0.0698901, 0.587692, 0.285186
55533.682458592003968, 0.00265426, -0.00298612, -0.00166219, 0.0699249, 0.587614, 0.285263
55533.71577495400561, 0.00266471, -0.00298968, -0.00166539, 0.070009, 0.587876, 0.285568
55533.7490912590074, 0.00265273, -0.00298232, -0.00166179, 0.0703676, 0.587937, 0.28528
55533.782407630009402, 0.00266305, -0.00297975, -0.00166955, 0.0704843, 0.587672, 0.285414
55533.815723921004974, 0.00265883, -0.00297948, -0.00167293, 0.0705181, 0.587547, 0.285448
55533.849040287008393, 0.00265552, -0.00297867, -0.00167452, 0.0705663, 0.587489, 0.285433
55533.882356992005953, 0.00266403, -0.00298123, -0.00168306, 0.0706241, 0.587493, 0.285753
55533.915822925009707, 0.00266882, -0.00298058, -0.00169725, 0.0706641, 0.587034, 0.286051
55533.949139287004073, 0.00266191, -0.00297847, -0.0016987, 0.0706983, 0.586903, 0.285983
55533.982456387006096, 0.00260973, -0.00295985, -0.00170337, 0.0708761, 0.585681, 0.285122
55534.015771954007505, 0.00260966, -0.00295742, -0.00171145, 0.0707593, 0.585115, 0.28516
55534.04908828700718, 0.00261001, -0.00295504, -0.00171514, 0.0706895, 0.584728, 0.285117
55534.08240459200897, 0.00259944, -0.0029445, -0.00172499, 0.0706438, 0.583606, 0.28489
55534.115720925008645, 0.00258732, -0.00293986, -0.00172818, 0.0705647, 0.583115, 0.284725
55534.149037287003011, 0.0025841, -0.00293777, -0.00173083, 0.0701541, 0.582663, 0.284536
55534.182353592004802, 0.00258967, -0.0029352, -0.0017407, 0.0698963, 0.582203, 0.284659
55534.215669954006444, 0.00256025, -0.00292451, -0.00174604, 0.0697261, 0.58112, 0.284304
55534.248986254009651, 0.00255948, -0.00292222, -0.00174883, 0.0696132, 0.580862, 0.284276
55534.28245264900761, 0.00257605, -0.00291953, -0.00175585, 0.069235, 0.580622, 0.28431
55534.315768925007433, 0.00259286, -0.00292306, -0.00175778, 0.0691867, 0.580996, 0.284514
55534.349085259003914, 0.00259982, -0.00292555, -0.00175728, 0.0691867, 0.581341, 0.28452
55534.382401621005556, 0.00261619, -0.00293179, -0.00175788, 0.0693166, 0.582059, 0.284702
55534.415717954005231, 0.00262153, -0.00293329, -0.00175816, 0.0693196, 0.582343, 0.28469
55534.449034259007021, 0.00263609, -0.00293543, -0.00176033, 0.0693442, 0.582646, 0.284846
55534.482350587008114, 0.0026517, -0.00293988, -0.00176626, 0.069468, 0.582947, 0.285306
55534.515666954008339, 0.00266335, -0.00294192, -0.00177194, 0.0694982, 0.583154, 0.285693
55534.548983287008014, 0.00266246, -0.00294204, -0.00177648, 0.0694685, 0.583192, 0.285928
55534.582299621004495, 0.0026595, -0.00294035, -0.00177967, 0.0693784, 0.583285, 0.286033
55534.615765959009877, 0.00264761, -0.00293794, -0.00177965, 0.0692945, 0.583341, 0.285901
55534.64908255400951, 0.00265208, -0.00293795, -0.00178167, 0.0692921, 0.583312, 0.286154
55534.682398592005484, 0.00266741, -0.0029389, -0.0017843, 0.0693612, 0.58316, 0.286713
55534.715714925005159, 0.00268369, -0.00293887, -0.00178286, 0.0694798, 0.582882, 0.287113
55534.749031259008916, 0.00269374, -0.00293894, -0.00178415, 0.0697894, 0.582983, 0.28711
55534.782347621003282, 0.00271042, -0.0029399, -0.00178708, 0.0700752, 0.583328, 0.287111
55534.81566392100649, 0.00271155, -0.00293968, -0.00178705, 0.0701778, 0.583514, 0.286951
55534.848980287009908, 0.00271421, -0.00293765, -0.00178764, 0.0705237, 0.583416, 0.286897
55534.882296592004423, 0.00271263, -0.00293567, -0.00178766, 0.0709423, 0.583549, 0.286399
55534.915612925004098, 0.00270227, -0.00293591, -0.00179011, 0.0711881, 0.584232, 0.28561
55534.948929254009272, 0.00270124, -0.00293617, -0.00178962, 0.0712258, 0.584217, 0.285503
55534.982395620005263, 0.0026799, -0.00293607, -0.00178948, 0.0714725, 0.584613, 0.284545
55535.015711925007054, 0.00265785, -0.00293662, -0.00179068, 0.0717563, 0.585334, 0.283468
55535.049028287008696, 0.00264005, -0.00293797, -0.00179133, 0.0719448, 0.586226, 0.282372
55535.082344620008371, 0.00264406, -0.00293846, -0.00179054, 0.0719606, 0.586289, 0.282251
55535.115660954004852, 0.00264049, -0.00293967, -0.00179024, 0.0719989, 0.58685, 0.281764
55535.148977225006092, 0.00263987, -0.00294212, -0.00178852, 0.0718938, 0.587437, 0.281215
55535.182293620004202, 0.00263214, -0.00294439, -0.00178728, 0.0717443, 0.587747, 0.28081
55535.215609897008108, 0.00264807, -0.00294626, -0.00178755, 0.0715158, 0.588323, 0.280773
55535.248926287007635, 0.00267226, -0.00294688, -0.00179144, 0.0712229, 0.588226, 0.281424
55535.28224262000731, 0.00267127, -0.00294577, -0.00179279, 0.0710471, 0.588328, 0.281409
55535.31570892000309, 0.00268189, -0.00294612, -0.00179679, 0.0708311, 0.588379, 0.281892
55535.349025287003315, 0.00268556, -0.0029465, -0.00179749, 0.07079, 0.588404, 0.281979
55535.382341559008637, 0.00273823, -0.00294797, -0.00181196, 0.0705108, 0.588045, 0.283769
55535.415657954006747, 0.00280143, -0.0029517, -0.00183159, 0.0702269, 0.587882, 0.286108
55535.448974287006422, 0.00285227, -0.00295614, -0.00184781, 0.0699757, 0.588059, 0.287788
55535.482290639003622, 0.00286849, -0.00295734, -0.00185579, 0.0699175, 0.587961, 0.288521
55535.515606920009304, 0.00286822, -0.00295722, -0.00185633, 0.0699211, 0.58788, 0.288562
55535.548923254005786, 0.00287298, -0.00295802, -0.00186018, 0.0699185, 0.587877, 0.288824
55535.582239620009204, 0.00287594, -0.002959, -0.0018633, 0.0699225, 0.587908, 0.289066
55535.615555897005834, 0.00287886, -0.00295926, -0.00186476, 0.0699616, 0.587894, 0.289179
55535.648872287005361, 0.00290297, -0.00296563, -0.00187645, 0.0701733, 0.588446, 0.290132
55535.682338587008417, 0.00290979, -0.00296772, -0.00188294, 0.0703739, 0.588533, 0.290584
55535.715654954008642, 0.00292338, -0.00297108, -0.00188549, 0.0706874, 0.589125, 0.290998
55535.74897125800635, 0.00293519, -0.00297262, -0.00189046, 0.0708985, 0.589272, 0.291341
55535.782287620007992, 0.0029457, -0.00297328, -0.00188747, 0.0711924, 0.589779, 0.291359
55535.815603920003923, 0.0029588, -0.00297512, -0.00188677, 0.0715256, 0.590369, 0.291472
55535.848920287004148, 0.00296367, -0.00297622, -0.00189049, 0.0715704, 0.59038, 0.291649
55535.882236620003823, 0.00296479, -0.00297655, -0.00189259, 0.0715963, 0.590362, 0.291731
55535.915552901009505, 0.00297293, -0.00298039, -0.00190724, 0.0719072, 0.590555, 0.29223
55535.948869287007255, 0.00297244, -0.0029794, -0.00191092, 0.0720303, 0.590419, 0.292238
55535.982185620006931, 0.00295933, -0.00297425, -0.00193522, 0.0721176, 0.58912, 0.292657
55536.015651892004826, 0.00294422, -0.00296945, -0.0019434, 0.0721657, 0.588427, 0.292631
55536.048968254006468, 0.00294009, -0.00296812, -0.00194644, 0.0721958, 0.588222, 0.292626
55536.082284620009887, 0.00292466, -0.00296308, -0.00195843, 0.0724301, 0.587388, 0.292626
55536.115601192002941, 0.00291549, -0.00296108, -0.00196318, 0.0725414, 0.58706, 0.292608
55536.148917254009575, 0.0029039, -0.00295719, -0.00196853, 0.0726251, 0.586542, 0.292574
55536.182233592007833, 0.00290748, -0.00295917, -0.00196801, 0.0726388, 0.586748, 0.29261
55536.215549920008925, 0.00290529, -0.00295553, -0.00197387, 0.0724192, 0.586448, 0.292863
55536.24886628700915, 0.00292384, -0.00295135, -0.00198529, 0.0721059, 0.586197, 0.293464
55536.282182592003664, 0.00292372, -0.00295092, -0.00198516, 0.0720805, 0.586198, 0.293448
55536.315498982003191, 0.00290551, -0.00294037, -0.00199126, 0.0719159, 0.585074, 0.293689
55536.348815287004982, 0.00289832, -0.00293966, -0.0019875, 0.0719475, 0.58498, 0.293498
55536.382281620004505, 0.00290964, -0.00293985, -0.00198833, 0.0718654, 0.585453, 0.29348
55536.415597920007713, 0.00293022, -0.00294024, -0.00199317, 0.0717191, 0.5865, 0.293487
55536.448914258005971, 0.00293052, -0.00293885, -0.00199407, 0.0716795, 0.586504, 0.29354
55536.482230587003869, 0.00291379, -0.00293944, -0.00199193, 0.0717301, 0.586073, 0.293497
55536.515546925009403, 0.00291767, -0.00294063, -0.00199373, 0.0717375, 0.586571, 0.293308
55536.548863287003769, 0.00291532, -0.00294263, -0.0019954, 0.0717823, 0.586542, 0.29351
55536.582179592005559, 0.00290598, -0.00294439, -0.00199394, 0.0718282, 0.586298, 0.293503
55536.615495954007201, 0.00291009, -0.00294563, -0.00199476, 0.0718639, 0.58629, 0.293685
55536.648812254003133, 0.00291387, -0.00294519, -0.00199539, 0.0718485, 0.586163, 0.294007
55536.682128592008667, 0.00292206, -0.00294537, -0.00199625, 0.0718939, 0.586226, 0.294112
55536.71559492500819, 0.00292063, -0.00294736, -0.00199563, 0.0719834, 0.585984, 0.294332
55536.748911287009832, 0.00292885, -0.00294843, -0.00199536, 0.0720393, 0.585998, 0.294525
55536.782228135009063, 0.00293432, -0.00295099, -0.00199305, 0.0721942, 0.585653, 0.294657
55536.815543920005439, 0.00294176, -0.00295233, -0.00199134, 0.0723395, 0.585415, 0.294771
55536.848860254009196, 0.00295573, -0.0029543, -0.00199202, 0.0724932, 0.585464, 0.294636
55536.882176620005339, 0.00295869, -0.00295556, -0.00199232, 0.0726249, 0.585463, 0.294406
55536.915492954009096, 0.00296354, -0.00295716, -0.00199024, 0.0727125, 0.585209, 0.294268
55536.948809287008771, 0.00296716, -0.00295691, -0.00199248, 0.072805, 0.585452, 0.294058
55536.982125587004703, 0.00296515, -0.00295704, -0.00199342, 0.0728166, 0.585495, 0.294064
55537.015441920004378, 0.00295587, -0.00295837, -0.0019923, 0.0729265, 0.585242, 0.293701
55537.048908287004451, 0.00295303, -0.00295711, -0.00199496, 0.0730438, 0.585684, 0.29329
55537.082224620004126, 0.00294518, -0.00295648, -0.0019985, 0.0731029, 0.586319, 0.292602
55537.115540954007884, 0.00292785, -0.00295707, -0.00200045, 0.0731729, 0.586759, 0.291639
55537.148857287007559, 0.00290587, -0.00295895, -0.00200029, 0.0732816, 0.587061, 0.290206
55537.18217358700349, 0.00291377, -0.00295997, -0.0020001, 0.0731894, 0.58745, 0.290018
55537.215489920003165, 0.00293304, -0.00295979, -0.0020001, 0.0730925, 0.58761, 0.290383
55537.248806258008699, 0.00293744, -0.00296034, -0.00200077, 0.0729709, 0.587722, 0.290482
55537.28212259200518, 0.00293639, -0.00296129, -0.00200128, 0.0728627, 0.587638, 0.290595
55537.315438925004855, 0.00297507, -0.00296031, -0.00200659, 0.0726148, 0.588037, 0.291986
55537.348755253005947, 0.00300777, -0.00296374, -0.00201059, 0.0722752, 0.588408, 0.292933
55537.382071620006172, 0.00303163, -0.00296347, -0.00201519, 0.072155, 0.588795, 0.293874
55537.415537953005696, 0.00303415, -0.00296349, -0.00201519, 0.0721605, 0.588738, 0.293942
55537.448854258007486, 0.00304314, -0.00296493, -0.00201994, 0.0720092, 0.5891, 0.29428
55537.482170587005385, 0.0030507, -0.00296499, -0.00202043, 0.0720147, 0.589041, 0.294484
55537.515486953008804, 0.00306987, -0.00296895, -0.00203302, 0.0717653, 0.588456, 0.295612
55537.548803253004735, 0.00307378, -0.00296914, -0.00203378, 0.0717625, 0.588511, 0.295741
55537.582119592007075, 0.00308393, -0.00297038, -0.00203821, 0.0717487, 0.588496, 0.29624
55537.615435944004275, 0.00309643, -0.00297079, -0.00204209, 0.0717962, 0.588481, 0.296864
55537.648752253007842, 0.00310205, -0.00297208, -0.00204587, 0.0717968, 0.588438, 0.297228
55537.682068620008067, 0.00312071, -0.00297297, -0.00205158, 0.0719419, 0.58891, 0.298156
55537.715384920003999, 0.00313459, -0.00297425, -0.00205809, 0.0720081, 0.588816, 0.298933
55537.748851263007964, 0.00316485, -0.00297644, -0.0020685, 0.072052, 0.588554, 0.300052
55537.782167620003747, 0.00317558, -0.0029765, -0.0020719, 0.0721821, 0.58905, 0.30065
55537.815483953003422, 0.00317558, -0.0029765, -0.0020719, 0.0721821, 0.58905, 0.30065
55537.84880028700718, 0.00317558, -0.0029765, -0.0020719, 0.0721821, 0.58905, 0.30065
55537.882116587003111, 0.00316221, -0.00297692, -0.0020742, 0.0720583, 0.588258, 0.300526
55537.91543295300653, 0.00315736, -0.0029733, -0.00207287, 0.0721579, 0.588221, 0.300298
55537.94874925800832, 0.00315736, -0.0029733, -0.00207287, 0.0721579, 0.588221, 0.300298
55537.982065620009962, 0.00314756, -0.00296736, -0.00208245, 0.072382, 0.587225, 0.300254
55538.015381953009637, 0.00314149, -0.0029663, -0.00208433, 0.0723815, 0.586894, 0.300232
55538.048698287006118, 0.00309164, -0.00295059, -0.00210397, 0.0727439, 0.583825, 0.299888
55538.082014587009326, 0.00307451, -0.00294545, -0.00211081, 0.0729094, 0.583058, 0.299717
55538.115480953005317, 0.00305524, -0.00294268, -0.00211499, 0.0729052, 0.582228, 0.299584
55538.148797253008524, 0.00304518, -0.00294237, -0.00212273, 0.0727579, 0.58113, 0.299861
55538.182113587005006, 0.00304156, -0.00294205, -0.00212271, 0.0728031, 0.581224, 0.299825
55538.215429934003623, 0.00303701, -0.00294072, -0.0021275, 0.0728064, 0.580683, 0.300018
55538.248746482007846, 0.00300595, -0.00293452, -0.00213608, 0.072964, 0.579098, 0.299917
55538.282062587008113, 0.00298013, -0.00292908, -0.00214439, 0.0730915, 0.577593, 0.299868
55538.315378953004256, 0.00297964, -0.00292883, -0.00214575, 0.0730393, 0.57742, 0.299934
55538.348695258006046, 0.00297608, -0.00292775, -0.00215519, 0.0729833, 0.576676, 0.300687
55538.382011620007688, 0.00298448, -0.00292716, -0.00216235, 0.0728216, 0.576045, 0.301232
55538.41532792000362, 0.00299473, -0.00292622, -0.00216571, 0.0726318, 0.575449, 0.301574
55538.448794287003693, 0.00301631, -0.00292629, -0.002173, 0.0724055, 0.575758, 0.302198
55538.4821105870069, 0.00301583, -0.00292602, -0.00217324, 0.0723794, 0.575509, 0.302284
55538.515426953003043, 0.00302115, -0.00292624, -0.0021759, 0.0724279, 0.575705, 0.302537
55538.548743253006251, 0.00301806, -0.0029266, -0.00217604, 0.0724449, 0.575564, 0.302606
55538.582059587010008, 0.00301255, -0.00292606, -0.00217811, 0.0723263, 0.575093, 0.302841
55538.615375925008266, 0.00301527, -0.00292597, -0.0021789, 0.0723421, 0.575236, 0.302893
55538.648692253009358, 0.00299362, -0.00292707, -0.00217651, 0.0723358, 0.57465, 0.302808
55538.682008591007616, 0.00299736, -0.00292655, -0.00217739, 0.0724252, 0.574935, 0.302854
55538.715324920005514, 0.00298782, -0.00292685, -0.00217741, 0.072455, 0.574906, 0.3027
55538.748641287005739, 0.00297189, -0.00292872, -0.0021761, 0.0725477, 0.574676, 0.302734
55538.781957587008947, 0.00297028, -0.00293283, -0.0021731, 0.0727609, 0.574174, 0.303028
55538.815423953004938, 0.00298175, -0.00293139, -0.00217601, 0.0728795, 0.574698, 0.303022
55538.848740287008695, 0.00299432, -0.0029313, -0.00217794, 0.0730475, 0.575019, 0.303157
55538.88205662000837, 0.00299388, -0.00293954, -0.00217072, 0.0731797, 0.57387, 0.303045
55538.915372953008045, 0.00299381, -0.00294412, -0.00216831, 0.073315, 0.573289, 0.302784
55538.948689258009836, 0.00300061, -0.00294195, -0.00217082, 0.0734109, 0.573667, 0.302566
55538.982005620004202, 0.00300338, -0.00293968, -0.00217334, 0.0734807, 0.57404, 0.302295
55539.015321920007409, 0.00301168, -0.00293597, -0.00217675, 0.0735418, 0.574618, 0.302052
55539.048638253007084, 0.00304746, -0.00292482, -0.0021872, 0.0736353, 0.576659, 0.301317
55539.081954591005342, 0.00305312, -0.00292235, -0.00218761, 0.0736785, 0.576924, 0.30135
55539.115270953006984, 0.00305447, -0.00292229, -0.00218757, 0.0736771, 0.576979, 0.301302
55539.148737258008623, 0.00305509, -0.00292145, -0.00218835, 0.073684, 0.577125, 0.301223
55539.182053620002989, 0.0030542, -0.00292365, -0.00218702, 0.0737007, 0.576801, 0.301088
55539.21536995300994, 0.00306708, -0.00292095, -0.00218883, 0.0736272, 0.577501, 0.301005
55539.248686287006421, 0.00305957, -0.00292017, -0.00219082, 0.0736151, 0.577762, 0.300708
55539.282002591004129, 0.00307144, -0.00292146, -0.00219079, 0.07351, 0.57793, 0.30078
55539.315318958004354, 0.00308939, -0.00292699, -0.00218935, 0.0733566, 0.577649, 0.301075
55539.348635258007562, 0.0031008, -0.00292936, -0.00219103, 0.0731951, 0.577817, 0.30132
55539.38195158700546, 0.00310029, -0.00293162, -0.00219361, 0.0730375, 0.578048, 0.301455
55539.415267925003718, 0.00312012, -0.00292965, -0.00219444, 0.0729347, 0.578695, 0.302238
55539.448584286008554, 0.00313012, -0.00293121, -0.00219466, 0.072882, 0.578615, 0.302619
55539.481900620005035, 0.00317599, -0.0029292, -0.00219559, 0.0727784, 0.579258, 0.304607
55539.515366920008091, 0.00319382, -0.00292748, -0.0021972, 0.0727237, 0.579845, 0.305787
55539.548683286004234, 0.00319349, -0.00292924, -0.00219813, 0.0726889, 0.579644, 0.305805
55539.581999620007991, 0.00319193, -0.00293535, -0.00220301, 0.0725757, 0.578807, 0.306547
55539.615315925009781, 0.00321629, -0.00294433, -0.00221088, 0.0724106, 0.577836, 0.307478
55539.648632253003598, 0.00321595, -0.00294571, -0.00221218, 0.0723881, 0.577737, 0.307535
55539.681948620003823, 0.00322262, -0.00295224, -0.00221833, 0.0723575, 0.576962, 0.308169
55539.715264925005613, 0.00321641, -0.00295234, -0.00221897, 0.0723591, 0.577033, 0.308224
55539.748581258005288, 0.0032321, -0.00295456, -0.00222435, 0.0724486, 0.577258, 0.309447
55539.781897558008495, 0.00325619, -0.00293975, -0.00222178, 0.0727735, 0.578205, 0.310133
55539.815213920002861, 0.00325524, -0.00293941, -0.00222197, 0.0727845, 0.578167, 0.310124
55539.848680253009661, 0.00326858, -0.00293218, -0.00222074, 0.0729795, 0.578817, 0.310408
55539.881996586009336, 0.00325842, -0.0029271, -0.00222114, 0.0730847, 0.5789, 0.31034
55539.9153129250044, 0.00325049, -0.00291219, -0.00222352, 0.0734477, 0.579249, 0.310356
55539.948629253005493, 0.00325058, -0.0029116, -0.00222256, 0.0734509, 0.579354, 0.31032
55539.981945586005168, 0.00323449, -0.00290989, -0.0022255, 0.0734794, 0.578871, 0.31013
55540.015261920008925, 0.00323714, -0.00290692, -0.00222265, 0.0735299, 0.579315, 0.31005
55540.048578286005068, 0.00323611, -0.00290876, -0.00222375, 0.0734937, 0.579097, 0.310097
55540.081894563008973, 0.00322244, -0.00290225, -0.00222838, 0.0736595, 0.578839, 0.309996
55540.11521094400814, 0.00320671, -0.00289544, -0.0022336, 0.0738388, 0.578692, 0.309924
55540.148527253004431, 0.00316543, -0.00288464, -0.0022436, 0.0740798, 0.577856, 0.309742
55540.181993620004505, 0.00316229, -0.00288346, -0.00224439, 0.0741111, 0.57783, 0.309718
55540.21530995300418, 0.00312316, -0.00287806, -0.00224731, 0.0742105, 0.577604, 0.309342
55540.248626253007387, 0.00311646, -0.00287837, -0.00224863, 0.0741754, 0.577336, 0.309334
55540.28194256300776, 0.00312111, -0.0028794, -0.00224836, 0.0741414, 0.577339, 0.309386
55540.31525892400532, 0.00308532, -0.00287572, -0.00225212, 0.0741768, 0.576718, 0.309132
55540.348575301009987, 0.00306578, -0.00287417, -0.00225452, 0.0741584, 0.5761, 0.309029
55540.381891634009662, 0.00305083, -0.00287396, -0.00225671, 0.0740713, 0.575616, 0.30889
55540.415207924008428, 0.00304595, -0.0028734, -0.00225815, 0.0740611, 0.575447, 0.308933
55540.44852428601007, 0.00304221, -0.00287367, -0.00226124, 0.073935, 0.575037, 0.308971
55540.481841286004055, 0.0030615, -0.00287537, -0.00226439, 0.0737677, 0.575031, 0.309154
55540.515156920009758, 0.00305534, -0.00287431, -0.00226771, 0.0737194, 0.574525, 0.309286
55540.548623258007865, 0.00306559, -0.00287498, -0.00227082, 0.0736052, 0.574377, 0.30948
55540.581939620009507, 0.00304852, -0.00287441, -0.00227428, 0.0734941, 0.573577, 0.309569
55540.615255953009182, 0.00304046, -0.00287398, -0.00227565, 0.0734254, 0.573094, 0.309528
55540.648572253005113, 0.00302859, -0.00287399, -0.00227878, 0.0732838, 0.572463, 0.309637
55540.681888558006904, 0.0030041, -0.0028751, -0.00227982, 0.0732196, 0.571424, 0.310038
55540.715204977008398, 0.00300129, -0.00287544, -0.00228052, 0.0731821, 0.571254, 0.310094
55540.748521286004689, 0.00299026, -0.00287645, -0.00227877, 0.0731841, 0.570777, 0.310177
55540.781837591006479, 0.00297338, -0.00287936, -0.00227584, 0.0731906, 0.569899, 0.310447
55540.815153924006154, 0.00296463, -0.0028798, -0.00227492, 0.073206, 0.569649, 0.310436
55540.848470253004052, 0.00298128, -0.00287841, -0.00227491, 0.0732754, 0.570078, 0.310477
55540.881936558005691, 0.00297888, -0.00287728, -0.00227235, 0.0734308, 0.570393, 0.310273
55540.915252953003801, 0.00299077, -0.00287498, -0.00227074, 0.0735714, 0.570904, 0.310152
55540.948569253007008, 0.00299444, -0.00287445, -0.00226936, 0.0737691, 0.571041, 0.310171
55540.981885620007233, 0.00299235, -0.00287476, -0.00226763, 0.0738268, 0.5709, 0.310054
55541.015201924004941, 0.00300041, -0.00287392, -0.0022671, 0.0738732, 0.571039, 0.310178
55541.048518286006583, 0.00299439, -0.00287289, -0.00226648, 0.0739547, 0.571102, 0.30982
55541.081834591008374, 0.0029846, -0.00286926, -0.00226712, 0.0740616, 0.571524, 0.309313
55541.115150953010016, 0.00299816, -0.00286478, -0.00226558, 0.0742185, 0.572012, 0.309202
55541.14846725800453, 0.0029976, -0.00286288, -0.00226421, 0.0743283, 0.572083, 0.309062
55541.181783620006172, 0.00300162, -0.00286349, -0.00226393, 0.0743123, 0.571934, 0.309305
55541.215099953005847, 0.00299188, -0.00286336, -0.0022647, 0.0742944, 0.572074, 0.308886
55541.248566286005371, 0.00298007, -0.00286261, -0.00226386, 0.0743566, 0.571992, 0.308576
55541.281882562005194, 0.00298538, -0.00286026, -0.00226088, 0.0744688, 0.572059, 0.308649
55541.315198924006836, 0.00297144, -0.00286021, -0.00226163, 0.074441, 0.572263, 0.308138
55541.348515253004734, 0.00296953, -0.00286061, -0.00226217, 0.0743813, 0.572566, 0.30791
55541.381831620004959, 0.00297233, -0.00286106, -0.00226213, 0.0743547, 0.572567, 0.30792
55541.415147953004634, 0.00298535, -0.00286475, -0.002264, 0.0742512, 0.572424, 0.308139
55541.44846428600431, 0.00300115, -0.00286961, -0.00226649, 0.0741195, 0.572106, 0.308417
55541.4817805910061, 0.00303164, -0.00287512, -0.00226976, 0.0739699, 0.572248, 0.30893
55541.515096920003998, 0.00306057, -0.00288063, -0.00227348, 0.0738497, 0.571952, 0.309359
55541.548413286007417, 0.0030876, -0.00288797, -0.00227764, 0.0737078, 0.571584, 0.309665
55541.581879591009056, 0.00308925, -0.00288806, -0.00227767, 0.0737175, 0.571483, 0.309734
55541.615195924008731, 0.00313781, -0.00289596, -0.0022825, 0.0736054, 0.571205, 0.310528
55541.648512253006629, 0.00314835, -0.00289983, -0.00228632, 0.0735331, 0.570719, 0.310586
55541.681828619010048, 0.00315671, -0.00290319, -0.00228826, 0.0735191, 0.570451, 0.310707
55541.715144919005979, 0.00324279, -0.00291237, -0.00229625, 0.0735114, 0.569895, 0.311909
55541.748461286006204, 0.00326286, -0.00291308, -0.00229719, 0.073548, 0.569839, 0.312242
55541.781777619005879, 0.00328881, -0.00291369, -0.00230032, 0.0735886, 0.569447, 0.31254
55541.815093953009637, 0.00329175, -0.0029145, -0.00230139, 0.0735744, 0.569348, 0.312559
55541.848410286009312, 0.00329238, -0.00291559, -0.00230373, 0.0735489, 0.56914, 0.312528
55541.881726619008987, 0.00331807, -0.00291517, -0.00230414, 0.0736359, 0.569242, 0.312951
55541.915042953005468, 0.0033574, -0.00291398, -0.00230572, 0.0737623, 0.569271, 0.313514
55541.948509258007107, 0.00336782, -0.0029147, -0.00230618, 0.0737959, 0.56935, 0.313727
55541.981825619004667, 0.00339669, -0.00291345, -0.00230931, 0.0739119, 0.56942, 0.31416
55542.015142262003792, 0.00339308, -0.00290742, -0.00230838, 0.0740048, 0.569508, 0.314126
55542.048458258002938, 0.00339548, -0.00290808, -0.00231888, 0.0740014, 0.568804, 0.313984
55542.08177458600403, 0.00342378, -0.00291143, -0.00231877, 0.0740575, 0.569079, 0.314386
55542.115090953004255, 0.00341957, -0.00290824, -0.00232224, 0.0740924, 0.568827, 0.314256
55542.14840728600393, 0.00340458, -0.0028936, -0.0023379, 0.0742956, 0.56809, 0.313884
55542.181723619003606, 0.00339638, -0.00288031, -0.00234322, 0.0745546, 0.568216, 0.313798
55542.215039953007363, 0.00339638, -0.00288031, -0.00234322, 0.0745546, 0.568216, 0.313798
55542.248356253003294, 0.00340897, -0.00287623, -0.00235768, 0.0746133, 0.567425, 0.313787
55542.281822619006562, 0.00341064, -0.00287043, -0.00236508, 0.0747073, 0.567165, 0.313739
55542.31513895700482, 0.00338497, -0.00285966, -0.0023702, 0.0748798, 0.566951, 0.31341
55542.348455286009994, 0.00338163, -0.00285838, -0.00237138, 0.0748946, 0.566878, 0.313359
55542.381771586005925, 0.00332566, -0.0028414, -0.00237778, 0.0751991, 0.566742, 0.312894
55542.415087891007715, 0.00330758, -0.00283018, -0.00238303, 0.0754938, 0.56682, 0.312897
55542.448404286005825, 0.00325866, -0.00281315, -0.0024002, 0.0756953, 0.56566, 0.312567
55542.481720586009033, 0.00325833, -0.00281296, -0.00239947, 0.075718, 0.565733, 0.312585
55542.515036924007291, 0.00318149, -0.00280337, -0.00240627, 0.0755719, 0.564296, 0.311747
55542.548353253005189, 0.00316594, -0.00280239, -0.0024107, 0.075432, 0.563526, 0.311514
55542.581669586004864, 0.00320043, -0.00280837, -0.00241287, 0.0753035, 0.563563, 0.311727
55542.614985953005089, 0.00323054, -0.00281326, -0.00241307, 0.0752348, 0.563926, 0.311913
55542.648452286004613, 0.00322252, -0.00281286, -0.00241495, 0.0751638, 0.563641, 0.311817
55542.681768562004436, 0.00321225, -0.00281323, -0.00241313, 0.0751929, 0.563853, 0.311666
55542.715084919007495, 0.00324733, -0.00281676, -0.0024155, 0.0751042, 0.564485, 0.311674
55542.748401257005753, 0.00327184, -0.00281728, -0.0024163, 0.0751525, 0.564839, 0.311879
55542.781717586003651, 0.00327159, -0.00281697, -0.00241809, 0.075098, 0.564528, 0.312013
55542.815033953003876, 0.00326504, -0.00281711, -0.00241766, 0.0751022, 0.564457, 0.312036
55542.848350310006936, 0.00323208, -0.00281685, -0.00241442, 0.0751272, 0.564158, 0.311965
55542.881666562003375, 0.00324383, -0.00281579, -0.00241568, 0.0750788, 0.564146, 0.312144
55542.914982919006434, 0.00320599, -0.00281421, -0.00242111, 0.0748809, 0.564101, 0.3116
55542.948299286006659, 0.00321344, -0.00281308, -0.00242143, 0.0748914, 0.564231, 0.311549
55542.981765591008298, 0.00317259, -0.00281192, -0.00242256, 0.07481, 0.564098, 0.310985
55543.01508195300994, 0.00319096, -0.00280986, -0.00242379, 0.0748093, 0.564365, 0.311051
55543.048398286009615, 0.00318331, -0.00280855, -0.00242467, 0.0747668, 0.56437, 0.310688
55543.081715672007704, 0.00317528, -0.002808, -0.00242728, 0.0747408, 0.56449, 0.310208
55543.115030919005221, 0.00317549, -0.00280691, -0.00242895, 0.0747887, 0.564651, 0.309928
55543.148347253008978, 0.00319965, -0.0028024, -0.00243218, 0.0748048, 0.565293, 0.309488
55543.181663619005121, 0.00321621, -0.00279861, -0.00243414, 0.0748618, 0.565798, 0.309075
55543.214979953008879, 0.00322945, -0.00279781, -0.00243343, 0.0749835, 0.565795, 0.309549
55543.248296257006587, 0.00323705, -0.00279662, -0.00243263, 0.0750658, 0.56572, 0.309863
55543.281612619008229, 0.00325092, -0.00279258, -0.0024356, 0.0751723, 0.566258, 0.309567
55543.315078924009867, 0.00326866, -0.00278932, -0.00243837, 0.0752526, 0.566739, 0.309427
55543.348395286004234, 0.00327118, -0.00278608, -0.00244008, 0.0753894, 0.566942, 0.309284
55543.381711586007441, 0.00328041, -0.0027802, -0.00244258, 0.0755243, 0.567415, 0.309314
55543.415027919007116, 0.00328151, -0.00277841, -0.00244446, 0.0756009, 0.567607, 0.309092
55543.448344224008906, 0.00328426, -0.00277703, -0.00244619, 0.0756217, 0.567978, 0.308658
55543.481660619007016, 0.00329785, -0.00276819, -0.00245289, 0.0758241, 0.569204, 0.307773
55543.514976953003497, 0.00329639, -0.00276331, -0.00245553, 0.0759716, 0.569513, 0.307555
