time, bias_gyr_x, bias_gyr_y, bias_gyr_z, bias_acc_x, bias_acc_y, bias_acc_z
-1, 0, 0, 0, 0, 0, 0
55498.885240597002849, 0, 0, 0, 0, 0, 0
55498.918556931006606, 0.0462352, 0.0516849, 0.0447092, 0.000278466, 0.000485564, -0.00114718
55498.951873335005075, 0.0373074, 0.0971446, 0.0334441, -0.0106494, 0.00112152, -0.00784611
55498.985189597005956, 0.0589371, 0.12224, 0.0224257, -0.0176594, -0.00457918, -0.0143599
55499.018506035004975, 0.0575176, 0.134772, 0.0122031, -0.038816, -0.00718367, -0.0279666
55499.051822569002979, 0.0585674, 0.128099, 0.0163804, -0.0172484, -0.0057144, -0.014172
55499.085139168004389, 0.0560828, 0.131473, 0.0153462, 0.0245013, -0.00917793, 0.00830613
55499.118605703006324, 0.0681437, 0.119732, 0.016261, 0.0768387, -0.0140817, 0.0311557
55499.15192230300454, 0.0716196, 0.113233, 0.00950452, 0.231627, -0.0170883, 0.104312
55499.185238836005738, 0.0655996, 0.103412, 0.0123204, 0.312905, -0.0167767, 0.141996
55499.218555407009262, 0.0678869, 0.105776, 0.0122487, 0.383331, -0.014847, 0.182449
55499.251872002008895, 0.0612027, 0.104129, 0.0122761, 0.438038, -0.0134666, 0.211233
55499.285188540008676, 0.0579764, 0.104913, 0.0150858, 0.454368, -0.0128259, 0.23121
55499.318505135008309, 0.0558492, 0.108414, 0.0180606, 0.461896, -0.013854, 0.250465
55499.351821702010056, 0.0598765, 0.105221, 0.0157427, 0.446915, -0.014399, 0.246702
55499.385138268007722, 0.0557729, 0.106596, 0.0139722, 0.455541, -0.012946, 0.244937
55499.418454802005726, 0.0540515, 0.107293, 0.0160811, 0.481143, -0.00391214, 0.23391
55499.45192140700965, 0.050274, 0.105953, 0.0148758, 0.493996, 0.00222619, 0.225789
55499.485237912005687, 0.0460689, 0.103396, 0.0198482, 0.484652, 0.000269852, 0.226541
55499.518554502006737, 0.0453967, 0.106142, 0.0182292, 0.461508, -0.0102629, 0.237413
55499.551871069008484, 0.0451808, 0.106712, 0.0144391, 0.43402, -0.0224986, 0.25088
55499.58518763500615, 0.045027, 0.103038, 0.0177643, 0.402062, -0.0321285, 0.258628
55499.618504235004366, 0.0472315, 0.100465, 0.0166205, 0.382103, -0.0415127, 0.269224
55499.651820821003639, 0.0484922, 0.097456, 0.0153973, 0.429268, -0.0337614, 0.276932
55499.685137335007312, 0.047006, 0.0940531, 0.0137734, 0.445878, -0.0299852, 0.277677
55499.71845390600356, 0.0448718, 0.0924347, 0.014294, 0.448717, -0.0289637, 0.277484
55499.751770468006725, 0.0433336, 0.0926277, 0.0159537, 0.432893, -0.041834, 0.293534
55499.785087068004941, 0.0410612, 0.0967309, 0.0155797, 0.406384, -0.0609924, 0.317739
55499.818553607008653, 0.0383225, 0.097049, 0.0144656, 0.386301, -0.0726485, 0.332444
55499.851870807004161, 0.0362111, 0.0931793, 0.0147331, 0.377626, -0.0832903, 0.347446
55499.885186735009484, 0.0369266, 0.0883472, 0.0147029, 0.373341, -0.0953485, 0.365773
55499.918503335007699, 0.0404011, 0.0835019, 0.0109796, 0.378146, -0.0986116, 0.360696
55499.951819902009447, 0.0410401, 0.0803117, 0.0112628, 0.365059, -0.107576, 0.369274
55499.985136411007261, 0.0400208, 0.0780269, 0.0113317, 0.356942, -0.111318, 0.376713
55500.018452931006323, 0.0390305, 0.0749025, 0.0106909, 0.347538, -0.117104, 0.384967
55500.051769259007415, 0.0381108, 0.0711748, 0.0113143, 0.338903, -0.122591, 0.393584
55500.08508559200709, 0.041412, 0.0658329, 0.0105522, 0.325833, -0.128405, 0.399441
55500.118401926003571, 0.0420556, 0.062984, 0.0100465, 0.314611, -0.132656, 0.407082
55500.151868292006839, 0.0414017, 0.0635794, 0.00939001, 0.306304, -0.134713, 0.417251
55500.18518462600332, 0.040478, 0.0593242, 0.00950225, 0.284347, -0.142199, 0.436886
55500.218500959002995, 0.0391141, 0.0544648, 0.00992861, 0.259923, -0.149093, 0.458676
55500.251817292009946, 0.0381785, 0.0551036, 0.00883259, 0.253627, -0.151483, 0.466218
55500.285133626006427, 0.0379348, 0.0521848, 0.0101225, 0.244946, -0.154544, 0.469744
55500.318449926009635, 0.0381855, 0.0476503, 0.0106198, 0.232723, -0.159504, 0.476233
55500.35176625900931, 0.0402986, 0.0398525, 0.0102202, 0.220691, -0.167818, 0.479338
55500.385082564003824, 0.0402365, 0.03626, 0.0101117, 0.212651, -0.176187, 0.481331
55500.418398930007243, 0.0410919, 0.0326873, 0.0103383, 0.206948, -0.182954, 0.482151
55500.451715292008885, 0.0416816, 0.0284913, 0.00987023, 0.198504, -0.192605, 0.486094
55500.485031592004816, 0.0431592, 0.0230721, 0.00925563, 0.18884, -0.203402, 0.486946
55500.518497930002923, 0.0403099, 0.0204919, 0.00984672, 0.191795, -0.2034, 0.487239
55500.551814292004565, 0.0408594, 0.0156269, 0.0110974, 0.18131, -0.21966, 0.48875
55500.585130597006355, 0.0396016, 0.0144251, 0.0103044, 0.172483, -0.228606, 0.496011
55500.618446959007997, 0.0390195, 0.0104444, 0.010206, 0.165714, -0.235087, 0.49731
55500.651763292007672, 0.0382637, 0.00680736, 0.0111485, 0.15928, -0.248967, 0.500462
55500.685079592003603, 0.0356834, 0.00216843, 0.0126832, 0.15616, -0.257801, 0.500284
55500.718395959003828, 0.0321805, 1.93395e-05, 0.0143953, 0.159459, -0.250906, 0.49204
55500.751712292003504, 0.0294867, -0.00343597, 0.0148706, 0.162739, -0.246509, 0.481174
55500.785028592006711, 0.0291252, -0.00406552, 0.0146326, 0.159885, -0.257524, 0.481145
55500.818344959006936, 0.0295013, -0.00417361, 0.0146028, 0.157678, -0.261394, 0.480804
55500.851811235006608, 0.0294907, -0.00475728, 0.0140522, 0.15432, -0.268152, 0.484973
55500.885127626002941, 0.0299142, -0.00476854, 0.0129958, 0.155959, -0.255713, 0.487237
55500.918443926006148, 0.0291786, -0.00640024, 0.012745, 0.152408, -0.265741, 0.487275
55500.951760292009567, 0.0299378, -0.00742766, 0.010752, 0.143528, -0.273675, 0.497629
55500.985076626006048, 0.0298017, -0.00655822, 0.00959106, 0.144731, -0.257797, 0.502836
55501.018392930003756, 0.0305835, -0.00716382, 0.00877307, 0.144157, -0.248744, 0.508399
55501.051709264007513, 0.0294851, -0.00704916, 0.00881458, 0.149828, -0.232556, 0.497887
55501.085025597007188, 0.0279118, -0.00743528, 0.0089817, 0.15282, -0.223584, 0.487517
55501.118341959008831, 0.028425, -0.00743811, 0.00930818, 0.150854, -0.23717, 0.488654
55501.151658292008506, 0.0279726, -0.00741476, 0.00892337, 0.149024, -0.242088, 0.493501
55501.18497459700302, 0.028128, -0.0081362, 0.00909086, 0.14776, -0.252045, 0.491237
55501.218440926008043, 0.0286911, -0.0093201, 0.0102248, 0.152241, -0.261073, 0.471783
55501.251757292004186, 0.0293677, -0.0102329, 0.0120822, 0.162658, -0.25905, 0.437153
55501.285073597005976, 0.0295474, -0.0096933, 0.0133626, 0.172325, -0.244858, 0.414138
55501.318389959007618, 0.029035, -0.00778984, 0.012352, 0.168387, -0.23198, 0.441022
55501.351706292007293, 0.0285571, -0.00724215, 0.0117748, 0.166241, -0.226729, 0.452567
55501.385022597009083, 0.027759, -0.00730722, 0.0111666, 0.165112, -0.20986, 0.461823
55501.418338959003449, 0.0279907, -0.00892209, 0.0114028, 0.165064, -0.211238, 0.451075
55501.451655330005451, 0.0284129, -0.0100455, 0.0112877, 0.162094, -0.216665, 0.450426
55501.484971625010076, 0.0287259, -0.0111408, 0.0112892, 0.160959, -0.221623, 0.442436
55501.518287925006007, 0.0289712, -0.0116489, 0.0110339, 0.158187, -0.227872, 0.443939
55501.551754264008196, 0.0280417, -0.0112126, 0.0106502, 0.158382, -0.225625, 0.449062
55501.585070625005756, 0.0273499, -0.0122009, 0.010903, 0.163459, -0.229617, 0.423259
55501.618386930007546, 0.0270483, -0.0130173, 0.0110786, 0.166764, -0.236119, 0.403168
55501.651703292009188, 0.0268474, -0.0138843, 0.0107915, 0.165853, -0.237454, 0.397842
55501.685019587006536, 0.0257835, -0.013636, 0.0105471, 0.167265, -0.241128, 0.39519
55501.718335930003377, 0.02497, -0.0136298, 0.0105826, 0.170419, -0.255955, 0.379876
55501.751652292005019, 0.0246322, -0.0132401, 0.010533, 0.170873, -0.25534, 0.383606
55501.784968673004187, 0.02492, -0.0132359, 0.0107803, 0.171805, -0.251606, 0.383022
55501.818284930006485, 0.0243686, -0.013268, 0.010443, 0.170879, -0.254117, 0.384617
55501.851601292008127, 0.024013, -0.0132752, 0.0100245, 0.169076, -0.252629, 0.391729
55501.88506762500765, 0.024037, -0.0129961, 0.00948774, 0.165897, -0.253391, 0.405961
55501.918383925003582, 0.0238915, -0.0129388, 0.00973332, 0.167172, -0.251235, 0.404522
55501.951700264005922, 0.0242904, -0.0136831, 0.0102602, 0.169011, -0.240667, 0.392856
55501.985016940008791, 0.0242634, -0.0140361, 0.010453, 0.170921, -0.2397, 0.381644
55502.018332925006689, 0.0245057, -0.0141266, 0.0102804, 0.170256, -0.239377, 0.382362
55502.05164925900317, 0.0238499, -0.0150581, 0.0105309, 0.178701, -0.246509, 0.340336
55502.084965592010121, 0.0238107, -0.0158001, 0.010656, 0.184087, -0.250426, 0.31339
55502.118281925009796, 0.0244888, -0.0154547, 0.010416, 0.180566, -0.245261, 0.328573
55502.151598263008054, 0.0250226, -0.0141322, 0.0102549, 0.172636, -0.235479, 0.362777
55502.184914597004536, 0.0254473, -0.0133725, 0.0100445, 0.169353, -0.228803, 0.376917
55502.218230930004211, 0.0245051, -0.0131925, 0.0102835, 0.167633, -0.239634, 0.381979
55502.251697263003734, 0.0242746, -0.0127203, 0.0100719, 0.161895, -0.216857, 0.401736
55502.285013592008909, 0.0247276, -0.0121552, 0.0100805, 0.156211, -0.191913, 0.418683
55502.318329897003423, 0.0254917, -0.0114487, 0.0100724, 0.154821, -0.173346, 0.418445
55502.351646292008809, 0.025106, -0.0115726, 0.0101545, 0.156715, -0.208216, 0.413851
55502.38496259200474, 0.025061, -0.011514, 0.0103425, 0.152508, -0.225575, 0.428241
55502.418278959004965, 0.0249041, -0.0116969, 0.010027, 0.163934, -0.221222, 0.391933
55502.45159529200464, 0.0251191, -0.0112833, 0.00965855, 0.174591, -0.181145, 0.347934
55502.484911625004315, 0.0248136, -0.0109468, 0.00948191, 0.169553, -0.145576, 0.355423
55502.518227959008073, 0.0244688, -0.0107597, 0.00934872, 0.160878, -0.10481, 0.375472
55502.551544263005781, 0.0240751, -0.0106164, 0.00896752, 0.170974, -0.0639604, 0.333731
55502.585010630005854, 0.0243751, -0.0103842, 0.00912954, 0.158557, -0.0353716, 0.366
55502.618326959003753, 0.024382, -0.0105039, 0.00936874, 0.144003, -0.0469385, 0.418649
55502.651643268007319, 0.0243484, -0.0101579, 0.0091526, 0.151175, 0.00270326, 0.381347
55502.684959625003103, 0.0243827, -0.0100195, 0.00930096, 0.138129, -0.0119537, 0.425463
55502.718275901002926, 0.0237639, -0.0100335, 0.00930391, 0.119489, -0.0178122, 0.487744
55502.751592263004568, 0.0238047, -0.0097886, 0.00911135, 0.130809, 0.036856, 0.437133
55502.78490862500621, 0.0236173, -0.00984848, 0.00902184, 0.135042, 0.0700473, 0.417546
55502.818224959009967, 0.0243894, -0.00980524, 0.00931728, 0.124114, 0.0966368, 0.446391
55502.851541292009642, 0.024148, -0.00990796, 0.00933515, 0.112495, 0.11494, 0.481226
55502.884857625009317, 0.0236889, -0.00957566, 0.00909252, 0.118894, 0.114162, 0.456051
55502.918173959005799, 0.0223461, -0.00919784, 0.00857226, 0.122619, 0.155934, 0.427492
55502.951640292005322, 0.0217165, -0.00894967, 0.00833785, 0.118994, 0.191265, 0.425438
55502.98495659200853, 0.0211481, -0.00902256, 0.00819451, 0.118947, 0.212167, 0.420969
55503.018272959008755, 0.0208707, -0.00891946, 0.00814274, 0.116108, 0.226055, 0.424168
55503.05158929200843, 0.0206887, -0.00883183, 0.00810119, 0.112667, 0.229962, 0.432239
55503.084905592004361, 0.0197699, -0.00865299, 0.00777863, 0.115439, 0.250337, 0.416113
55503.118221959004586, 0.0188603, -0.00866165, 0.007489, 0.118533, 0.253966, 0.40597
55503.151538292004261, 0.0175334, -0.00856896, 0.00707628, 0.120928, 0.262724, 0.394929
55503.184854625003936, 0.0166129, -0.00846917, 0.00675376, 0.121866, 0.266696, 0.388336
55503.218170959007693, 0.0156822, -0.00832021, 0.0063985, 0.122536, 0.268748, 0.382302
55503.251487235007517, 0.0147563, -0.00821331, 0.00620613, 0.121915, 0.279711, 0.380049
55503.284953625006892, 0.0142072, -0.00795679, 0.00590848, 0.123396, 0.279357, 0.37218
55503.318269930008682, 0.0133898, -0.00793261, 0.00556668, 0.125975, 0.274633, 0.366134
55503.351586292003049, 0.0131902, -0.00789495, 0.00545844, 0.126477, 0.273367, 0.364858
55503.38490262501, 0.0131449, -0.00778995, 0.00535763, 0.127406, 0.271592, 0.362187
55503.418218897008046, 0.0127833, -0.007685, 0.00529407, 0.130134, 0.269348, 0.355989
55503.451535292006156, 0.0124915, -0.00764473, 0.00520893, 0.131944, 0.267657, 0.352097
55503.484851625005831, 0.0120593, -0.00743931, 0.00506606, 0.134287, 0.264244, 0.34595
55503.518167959009588, 0.0115667, -0.00729017, 0.00486218, 0.136744, 0.259012, 0.34101
55503.55148425900552, 0.0112798, -0.00718048, 0.00477796, 0.13862, 0.255687, 0.336935
55503.584800625008938, 0.0108664, -0.00706471, 0.0045799, 0.139537, 0.251613, 0.335462
55503.618116897006985, 0.0103394, -0.00680872, 0.00446899, 0.143531, 0.242997, 0.327148
55503.651583258004393, 0.00969672, -0.00646351, 0.00435064, 0.149355, 0.230082, 0.3156
55503.684899625004618, 0.00894429, -0.00611268, 0.00407197, 0.153131, 0.216864, 0.309289
55503.718215930006409, 0.00804792, -0.00552754, 0.00362514, 0.157575, 0.194935, 0.303957
55503.751532292008051, 0.00730113, -0.00517192, 0.00329616, 0.160985, 0.179247, 0.300049
55503.784848625007726, 0.00740527, -0.00519918, 0.00322356, 0.157193, 0.184787, 0.306852
55503.818164935008099, 0.00680867, -0.00463252, 0.00255416, 0.156206, 0.162434, 0.317438
55503.851481258003332, 0.00675951, -0.00461943, 0.00225114, 0.15216, 0.163196, 0.328352
55503.884797597005672, 0.00658597, -0.00444546, 0.00202599, 0.151282, 0.154896, 0.334211
55503.918113930005347, 0.00628193, -0.00407503, 0.0017532, 0.150975, 0.14052, 0.339474
55503.951430263005022, 0.00597717, -0.00363581, 0.00149723, 0.152166, 0.119465, 0.344158
55503.984896625006513, 0.00596159, -0.0035952, 0.00130806, 0.148196, 0.123769, 0.352178
55504.018215577008959, 0.00666349, -0.00424465, 0.00106454, 0.133904, 0.16926, 0.374478
55504.051529292009945, 0.00717187, -0.00471081, 0.000924839, 0.125036, 0.198974, 0.388892
55504.084845592005877, 0.0073397, -0.00486194, 0.000855473, 0.120791, 0.213071, 0.394333
55504.118161897007667, 0.00752269, -0.00504363, 0.000875275, 0.117517, 0.229522, 0.395568
55504.151478258005227, 0.00770642, -0.00547413, 0.000686907, 0.108465, 0.263662, 0.406247
55504.184794625005452, 0.00775824, -0.00563641, 0.000541667, 0.103705, 0.277671, 0.41367
55504.218110958005127, 0.00761655, -0.00587139, 0.000681365, 0.104203, 0.295166, 0.402548
55504.251427258008334, 0.00764037, -0.00568716, 0.000576856, 0.103481, 0.284033, 0.409703
55504.284743625008559, 0.0074698, -0.00568895, 0.000648281, 0.104366, 0.28891, 0.402251
55504.318059958008234, 0.00741108, -0.00550749, 0.00060701, 0.10409, 0.281506, 0.404315
55504.351526292004564, 0.0072466, -0.00555053, 0.000533097, 0.102319, 0.287413, 0.4054
55504.384842625004239, 0.00687977, -0.00579854, 0.00045306, 0.0997676, 0.306506, 0.402358
55504.418158925007447, 0.00686299, -0.00581891, 0.000324545, 0.0969049, 0.30784, 0.410473
55504.451475258007122, 0.00669274, -0.00572127, 0.000443976, 0.0990206, 0.30811, 0.399933
55504.484791592003603, 0.00666581, -0.00570899, 0.000467681, 0.0996097, 0.307901, 0.39787
55504.518107958007022, 0.00663028, -0.00569268, 0.0005098, 0.100253, 0.308383, 0.394638
55504.551424263008812, 0.00672323, -0.00567635, 0.000553477, 0.100659, 0.308316, 0.393523
55504.584740630009037, 0.0068978, -0.00565881, 0.000625645, 0.10136, 0.308582, 0.391744
55504.618056930004968, 0.00693076, -0.00565406, 0.000661841, 0.101789, 0.309148, 0.389996
55504.65137329200661, 0.00694674, -0.00559011, 0.00078833, 0.102802, 0.308527, 0.384425
55504.684839625006134, 0.00707433, -0.0056108, 0.000837983, 0.103156, 0.310586, 0.383377
55504.718155958005809, 0.00738656, -0.00565444, 0.0010786, 0.105729, 0.318325, 0.373495
55504.751472258009017, 0.00752557, -0.00575413, 0.00116231, 0.106817, 0.325857, 0.369369
55504.784788625009242, 0.00778303, -0.00559635, 0.00137426, 0.109905, 0.32458, 0.360041
55504.818104930003756, 0.0080294, -0.00549625, 0.00152971, 0.111253, 0.323508, 0.355625
55504.851421292005398, 0.0081449, -0.00539382, 0.00161394, 0.112478, 0.321592, 0.352228
55504.884737592008605, 0.00836205, -0.00518014, 0.00181468, 0.11513, 0.318098, 0.344318
55504.918053930006863, 0.00859035, -0.0050911, 0.00195306, 0.116705, 0.318956, 0.339542
55504.951370263006538, 0.00867815, -0.00493614, 0.00206057, 0.118348, 0.31631, 0.334867
55504.98468662500818, 0.00907499, -0.00468057, 0.00231594, 0.120495, 0.312326, 0.328604
55505.018152930009819, 0.00924517, -0.00435162, 0.00249942, 0.123633, 0.307703, 0.320122
55505.051469292004185, 0.00940225, -0.00419481, 0.00266097, 0.125169, 0.306499, 0.315447
55505.08478562500386, 0.0094759, -0.00361039, 0.00299362, 0.1301, 0.29815, 0.301586
55505.118101958003535, 0.00954281, -0.00332271, 0.00317333, 0.131508, 0.291125, 0.297554
55505.151418263005326, 0.00949598, -0.00262566, 0.00353884, 0.135711, 0.278792, 0.285974
55505.184734592003224, 0.00975285, -0.00231173, 0.00385228, 0.136364, 0.271887, 0.28385
55505.218050958006643, 0.00965681, -0.00192493, 0.00395985, 0.137928, 0.265344, 0.280216
55505.251367292003124, 0.00963604, -0.00169732, 0.00409491, 0.138499, 0.262634, 0.279089
55505.284683625010075, 0.00968547, -0.00155042, 0.00420257, 0.138167, 0.260317, 0.280311
55505.317999925006006, 0.00976759, -0.00149016, 0.0043214, 0.137709, 0.260752, 0.281951
55505.351316292006231, 0.00972579, -0.00142636, 0.00448298, 0.135645, 0.258812, 0.2871
55505.384782592009287, 0.00980171, -0.00143294, 0.00468852, 0.133395, 0.258425, 0.292767
55505.41809895800543, 0.0102297, -0.00163043, 0.0048104, 0.134124, 0.25729, 0.28822
55505.451415292009187, 0.0106062, -0.00163148, 0.00482638, 0.13565, 0.25422, 0.281233
55505.484731596006895, 0.0104339, -0.00167545, 0.00473785, 0.137157, 0.252178, 0.27458
55505.518047930003377, 0.0105688, -0.00164898, 0.00470897, 0.138813, 0.250722, 0.269172
55505.551364263003052, 0.0104531, -0.00162273, 0.00459943, 0.140275, 0.250185, 0.265713
55505.584680596010003, 0.0102005, -0.00165996, 0.00446581, 0.142702, 0.248004, 0.257698
55505.617996925007901, 0.00969107, -0.00168226, 0.00425821, 0.143871, 0.247349, 0.257167
55505.651313292008126, 0.00934766, -0.00170739, 0.00413194, 0.144192, 0.247184, 0.258612
55505.684629596005834, 0.00914128, -0.00170272, 0.00407508, 0.143041, 0.248254, 0.26342
55505.718095963005908, 0.00887292, -0.00172521, 0.00398423, 0.142982, 0.248101, 0.265717
55505.751412258003256, 0.00866649, -0.00175786, 0.00391194, 0.144121, 0.246298, 0.262603
55505.784728592007014, 0.00860731, -0.00175626, 0.00388531, 0.144429, 0.246675, 0.261262
55505.818044958003156, 0.00827405, -0.00179392, 0.00377507, 0.145269, 0.245906, 0.259588
55505.851361258006364, 0.00793179, -0.00183337, 0.00366837, 0.145828, 0.245564, 0.257899
55505.884677563008154, 0.00781248, -0.00184381, 0.00362752, 0.146314, 0.245057, 0.257394
55505.917993958006264, 0.00757957, -0.00186144, 0.00355306, 0.146796, 0.245097, 0.255884
55505.951310244003253, 0.00717562, -0.00189004, 0.00341304, 0.148143, 0.244262, 0.251987
55505.984626625009696, 0.0066608, -0.00190899, 0.00324122, 0.148906, 0.245937, 0.248509
55506.017942925005627, 0.00634386, -0.0019369, 0.00315172, 0.149384, 0.245172, 0.248402
55506.051259272004245, 0.00612376, -0.00195876, 0.00309332, 0.149612, 0.244498, 0.248873
55506.084725625005376, 0.00603009, -0.00195005, 0.00306303, 0.149855, 0.245646, 0.247987
55506.118041958005051, 0.00572597, -0.00196573, 0.00294686, 0.150495, 0.245655, 0.244954
55506.151358282004367, 0.00532257, -0.00200872, 0.00279707, 0.151622, 0.243103, 0.241861
55506.184674596006516, 0.00514908, -0.00201177, 0.00273819, 0.151813, 0.244008, 0.240704
55506.217990958008158, 0.00475895, -0.00201165, 0.00259824, 0.15183, 0.246746, 0.238645
55506.25130725800409, 0.00464742, -0.00201548, 0.00255726, 0.152241, 0.246302, 0.237685
55506.284623625004315, 0.00412614, -0.00199961, 0.00238693, 0.151851, 0.251024, 0.236186
55506.31793995800399, 0.00368112, -0.00197887, 0.00222575, 0.152311, 0.252629, 0.233802
55506.35125626300578, 0.00331539, -0.00192635, 0.0020979, 0.152659, 0.255503, 0.231164
55506.384572591006872, 0.00316506, -0.00192085, 0.00206842, 0.152133, 0.258399, 0.23125
55506.418038925003202, 0.0023888, -0.00187248, 0.00181033, 0.151551, 0.263184, 0.229939
55506.451355291006621, 0.00198978, -0.00179541, 0.00170242, 0.151008, 0.268064, 0.228641
55506.484672072008834, 0.0019008, -0.0017833, 0.00167911, 0.151513, 0.267335, 0.227547
55506.517987896004342, 0.00162958, -0.00172763, 0.0015791, 0.151875, 0.266975, 0.226315
55506.551304258005985, 0.000955943, -0.00157817, 0.00133251, 0.153272, 0.263277, 0.223044
55506.584620596004243, 0.000435547, -0.00146388, 0.00116279, 0.154434, 0.260274, 0.220197
55506.617936958005885, 0.000127452, -0.00127856, 0.0010729, 0.155232, 0.258396, 0.217236
55506.651253263007675, -0.000138677, -0.00116187, 0.00096081, 0.155829, 0.254236, 0.21659
55506.684569625009317, -0.000333354, -0.00105667, 0.00087807, 0.15623, 0.250274, 0.216436
55506.717885958008992, -0.000386438, -0.00095582, 0.000820919, 0.155578, 0.248696, 0.218243
55506.751202263003506, -0.000414726, -0.000867677, 0.00072341, 0.154284, 0.246133, 0.222725
55506.784668625004997, -0.000575233, -0.00090534, 0.000591424, 0.153015, 0.245396, 0.227453
55506.817984925008204, -0.000765274, -0.000889511, 0.000492162, 0.152383, 0.243649, 0.229941
55506.851301291004347, -0.000897234, -0.000865638, 0.000395832, 0.15048, 0.246263, 0.233884
55506.884617625008104, -0.00117816, -0.000904888, 0.000208324, 0.14795, 0.249126, 0.240471
55506.917933958007779, -0.00135919, -0.000962689, 0.000105003, 0.146723, 0.251831, 0.243461
55506.95125026300957, -0.00139675, -0.00095707, 5.27382e-05, 0.145602, 0.253266, 0.246079
55506.984566625003936, -0.00131919, -0.000995012, 6.23485e-05, 0.143601, 0.263963, 0.247105
55507.017882925007143, -0.00129622, -0.00101343, 6.01718e-05, 0.142694, 0.268829, 0.247582
55507.051199263005401, -0.00122716, -0.00102757, 5.07949e-05, 0.140841, 0.276843, 0.249308
55507.084515582006134, -0.00123563, -0.00108994, 3.23648e-05, 0.139281, 0.286235, 0.250037
55507.117981958006567, -0.00130919, -0.00115757, -2.47405e-05, 0.137791, 0.293325, 0.251908
55507.151298263008357, -0.00140291, -0.00130777, -0.000147423, 0.133536, 0.312576, 0.257291
55507.184614625009999, -0.00147899, -0.00139598, -0.000195147, 0.130674, 0.329476, 0.258209
55507.217930929007707, -0.00153788, -0.00143731, -0.000344901, 0.127988, 0.331373, 0.266672
55507.251247291009349, -0.00165668, -0.00156403, -0.000405014, 0.125399, 0.348025, 0.267609
55507.284563629007607, -0.00170182, -0.00158564, -0.000538196, 0.121544, 0.356844, 0.275205
55507.317879958005506, -0.00186094, -0.00164623, -0.000718288, 0.117921, 0.363743, 0.283833
55507.351196263007296, -0.00197413, -0.00168618, -0.00080953, 0.115898, 0.369543, 0.287499
55507.384512591008388, -0.00225085, -0.00182574, -0.000970639, 0.112894, 0.381348, 0.292657
55507.417828958008613, -0.00246124, -0.0019441, -0.00102746, 0.11144, 0.393403, 0.292302
55507.451145291008288, -0.00262189, -0.00199821, -0.0010927, 0.110569, 0.397565, 0.293455
55507.484611591004068, -0.00263184, -0.00200555, -0.00109488, 0.110239, 0.399485, 0.293475
55507.517927929009602, -0.00271382, -0.00206628, -0.00113565, 0.108903, 0.406193, 0.294913
55507.551244263006083, -0.00289742, -0.00214254, -0.00121872, 0.107658, 0.411268, 0.297182
55507.584560625007725, -0.00292977, -0.00211515, -0.00124313, 0.106794, 0.411831, 0.298662
55507.617876925003657, -0.0029991, -0.00211433, -0.00128193, 0.105032, 0.416448, 0.300998
55507.651193291007075, -0.00304545, -0.00208418, -0.00133136, 0.103942, 0.415252, 0.30412
55507.684509591003007, -0.00312894, -0.00205529, -0.00141609, 0.10311, 0.411086, 0.308202
55507.717825929008541, -0.00320943, -0.00204272, -0.00145567, 0.102426, 0.410724, 0.309871
55507.751142234003055, -0.00327313, -0.00209517, -0.00143439, 0.103017, 0.414367, 0.307104
55507.784458625006664, -0.0034799, -0.00214235, -0.00153469, 0.103451, 0.412048, 0.308037
55507.817924929004221, -0.00358081, -0.00218512, -0.00156485, 0.103611, 0.413571, 0.307575
55507.851241263007978, -0.003619, -0.00219561, -0.00156099, 0.104297, 0.413503, 0.305716
55507.88455762500962, -0.00390325, -0.00224605, -0.00162796, 0.106808, 0.411019, 0.300221
55507.917873948004853, -0.00403815, -0.0022651, -0.00161897, 0.109081, 0.409969, 0.294036
55507.951190263003809, -0.0044093, -0.0022958, -0.00172315, 0.111268, 0.40573, 0.289609
55507.984506596003484, -0.00457609, -0.00231049, -0.00175779, 0.112953, 0.403326, 0.285742
55508.01782292900316, -0.00465479, -0.00231697, -0.00173098, 0.114449, 0.403395, 0.280903
55508.051139291004802, -0.00473711, -0.00226785, -0.00171953, 0.117025, 0.397067, 0.274859
55508.084455625008559, -0.00494693, -0.00228598, -0.00175885, 0.118919, 0.394694, 0.270127
55508.117771958008234, -0.0051416, -0.00232609, -0.00179415, 0.120155, 0.395212, 0.266453
55508.151238234007906, -0.00514367, -0.00231897, -0.00177981, 0.120544, 0.394898, 0.265144
55508.184554629006016, -0.00502359, -0.00230349, -0.00167407, 0.12192, 0.396017, 0.259863
55508.217870958003914, -0.00501716, -0.00232583, -0.00162366, 0.123027, 0.398183, 0.255603
55508.251187291003589, -0.00505943, -0.00238241, -0.0015971, 0.123533, 0.403023, 0.252568
55508.284503667004174, -0.00498496, -0.00240301, -0.00154714, 0.12358, 0.406642, 0.251112
55508.317819929005054, -0.00477325, -0.00238541, -0.00144596, 0.123855, 0.408886, 0.249015
55508.351136291006696, -0.00475657, -0.00239926, -0.00142913, 0.124218, 0.409859, 0.24767
55508.384452596008487, -0.00481029, -0.00247658, -0.00143356, 0.123154, 0.418046, 0.248541
55508.417768924009579, -0.00472326, -0.00247476, -0.00139323, 0.12315, 0.419584, 0.247898
55508.451085263004643, -0.00452044, -0.00247122, -0.00130288, 0.122947, 0.423687, 0.24681
55508.484401624009479, -0.00450793, -0.00254133, -0.00129879, 0.121641, 0.432864, 0.248021
55508.517867924005259, -0.00459468, -0.00264405, -0.00130257, 0.11955, 0.448006, 0.249129
55508.551184291005484, -0.00479962, -0.00274243, -0.00137364, 0.118375, 0.456431, 0.250478
55508.584500624005159, -0.00473435, -0.00280346, -0.00134258, 0.11726, 0.466342, 0.250646
55508.617816958008916, -0.00473603, -0.00283356, -0.00132113, 0.116584, 0.473024, 0.25
55508.651133291008591, -0.00488765, -0.00289434, -0.00136469, 0.115794, 0.47942, 0.250256
55508.684449596003105, -0.00487292, -0.0029219, -0.00134887, 0.115221, 0.485191, 0.249766
55508.717765958004748, -0.00488004, -0.00294006, -0.00133932, 0.115036, 0.488283, 0.249122
55508.75108279100823, -0.00503672, -0.00299142, -0.0013739, 0.114615, 0.493508, 0.248483
55508.784398624004098, -0.00525834, -0.00304405, -0.00144083, 0.113896, 0.499415, 0.248154
55508.817714958007855, -0.00549334, -0.00310276, -0.00150261, 0.113292, 0.505606, 0.247337
55508.851181262005412, -0.0057307, -0.00315946, -0.00156583, 0.112819, 0.510605, 0.246669
55508.884497624007054, -0.00619053, -0.00326181, -0.00167254, 0.111988, 0.52126, 0.244332
55508.917813958003535, -0.00676433, -0.00336788, -0.00183753, 0.110982, 0.531057, 0.242458
55508.951130262008519, -0.00737717, -0.00350204, -0.0020221, 0.110179, 0.539767, 0.24101
55508.984446596005, -0.00792053, -0.00359601, -0.00220641, 0.109601, 0.544632, 0.240191
55509.017762958006642, -0.00813858, -0.00362777, -0.00231246, 0.109256, 0.545488, 0.240477
55509.051079291006317, -0.00827718, -0.00363392, -0.00237034, 0.108992, 0.546762, 0.239946
55509.084395624005992, -0.008574, -0.00367652, -0.0024802, 0.108768, 0.548483, 0.239078
55509.11771195800975, -0.0089688, -0.0037138, -0.00263968, 0.108705, 0.548138, 0.238298
55509.151028291009425, -0.00927319, -0.00373392, -0.0027646, 0.108834, 0.546515, 0.237881
55509.184344596003939, -0.00953085, -0.00374807, -0.00288256, 0.108869, 0.545576, 0.237078
55509.21781095800543, -0.00975764, -0.0037605, -0.00297486, 0.108905, 0.545216, 0.236227
55509.251127262003138, -0.00995886, -0.00378126, -0.00303933, 0.108826, 0.545685, 0.235466
55509.28444362400478, -0.0101252, -0.0037934, -0.00309892, 0.108862, 0.545483, 0.234829
55509.31775992900657, -0.010233, -0.00380326, -0.00312769, 0.108501, 0.546961, 0.23429
55509.351076262006245, -0.0103239, -0.00380214, -0.00316191, 0.108534, 0.546792, 0.233882
55509.384392624007887, -0.0105032, -0.00379411, -0.00324003, 0.108549, 0.546584, 0.23287
55509.417708958004368, -0.0104005, -0.00375231, -0.0032263, 0.108319, 0.547157, 0.232763
55509.451025262009352, -0.0104524, -0.00373698, -0.00325301, 0.108175, 0.547395, 0.232457
55509.484341596005834, -0.0103915, -0.00371755, -0.00325109, 0.108243, 0.547298, 0.232208
55509.517658643009781, -0.0106383, -0.00372739, -0.00334507, 0.10881, 0.546048, 0.230821
55509.551124291007, -0.0109622, -0.00373532, -0.00346654, 0.109283, 0.544865, 0.2293
55509.584440624006675, -0.0112112, -0.00372958, -0.00357028, 0.109764, 0.543817, 0.227822
55509.617756958003156, -0.0116547, -0.00377087, -0.00371451, 0.110702, 0.542102, 0.225681
55509.651073291010107, -0.0118954, -0.00380705, -0.00378065, 0.111076, 0.541408, 0.224884
55509.684389591006038, -0.0121398, -0.0038348, -0.00385723, 0.11197, 0.540282, 0.223033
55509.717705981005565, -0.0121925, -0.00382725, -0.00388798, 0.112733, 0.539597, 0.221381
55509.751022262003971, -0.0121622, -0.00382823, -0.00386908, 0.11329, 0.539514, 0.22027
55509.784338591009146, -0.0121305, -0.0038252, -0.00384973, 0.113974, 0.539437, 0.218769
55509.817654958009371, -0.0121648, -0.00384996, -0.00384176, 0.114586, 0.539409, 0.217401
55509.850971291009046, -0.0120695, -0.00384517, -0.00379851, 0.114872, 0.539764, 0.216696
55509.88428759600356, -0.011972, -0.00384134, -0.00374518, 0.115257, 0.540271, 0.215667
55509.917753924004501, -0.0119205, -0.00384158, -0.0037072, 0.115785, 0.540592, 0.214255
55509.951070243005233, -0.0118884, -0.00384813, -0.00368258, 0.116202, 0.540828, 0.21313
55509.984386591007933, -0.0118187, -0.00383613, -0.00365182, 0.116982, 0.540636, 0.211154
55510.017702958008158, -0.0116713, -0.00382064, -0.00358742, 0.117093, 0.541234, 0.210638
55510.051019262005866, -0.0114492, -0.00379632, -0.00349291, 0.117668, 0.5418, 0.208891
55510.084335562009073, -0.0112605, -0.0037693, -0.00341392, 0.118556, 0.541773, 0.206488
55510.117651896005555, -0.0109912, -0.00372932, -0.00331593, 0.119306, 0.541735, 0.204444
55510.150968262008973, -0.0109324, -0.00373121, -0.00328774, 0.119447, 0.542028, 0.203941
55510.18428462400334, -0.0109082, -0.00374071, -0.00325652, 0.119959, 0.542357, 0.202365
55510.217600958007097, -0.0104504, -0.00366282, -0.00310522, 0.120483, 0.541926, 0.200978
55510.251067262004653, -0.0100984, -0.0036086, -0.00299469, 0.1203, 0.542419, 0.201177
55510.284383591009828, -0.00979256, -0.00356279, -0.00288154, 0.120646, 0.542462, 0.200045
55510.317699948005611, -0.00947552, -0.00351877, -0.00277352, 0.120829, 0.54257, 0.199413
55510.351016291009728, -0.00925206, -0.00351895, -0.00266906, 0.120658, 0.54519, 0.198708
55510.384332596004242, -0.00911821, -0.00353381, -0.00260322, 0.120133, 0.548454, 0.19873
55510.41764897700341, -0.00878321, -0.0035093, -0.00248631, 0.119714, 0.550969, 0.198773
55510.450965257005009, -0.00876985, -0.00354292, -0.00244438, 0.119437, 0.55458, 0.197924
55510.484281596007349, -0.00869051, -0.00354334, -0.00239391, 0.119134, 0.557176, 0.197414
55510.517597929007025, -0.00857432, -0.00353222, -0.00234693, 0.118427, 0.560764, 0.197436
55510.550914234008815, -0.00875445, -0.00357573, -0.00238901, 0.118124, 0.563521, 0.196889
55510.584230624008342, -0.0086728, -0.00357226, -0.00235202, 0.117819, 0.565827, 0.196525
55510.617696924004122, -0.00867306, -0.00357078, -0.00235061, 0.117552, 0.567504, 0.196269
55510.651013262009656, -0.00899583, -0.0036189, -0.0024406, 0.117239, 0.570564, 0.195169
55510.684329596006137, -0.00903864, -0.00362475, -0.00242119, 0.11666, 0.575527, 0.193767
55510.717645924007229, -0.00880081, -0.00357377, -0.00234408, 0.116172, 0.577738, 0.193779
55510.750962262005487, -0.00863999, -0.00352959, -0.00230318, 0.115772, 0.579226, 0.193891
55510.784278624007129, -0.00850225, -0.00350895, -0.00225772, 0.115478, 0.581063, 0.193692
55510.817594957006804, -0.0082855, -0.00347424, -0.00222238, 0.115474, 0.58004, 0.194487
55510.850911291003285, -0.00835602, -0.0034932, -0.00226002, 0.11574, 0.57861, 0.194538
55510.884227596005076, -0.00822031, -0.00347441, -0.00224226, 0.115899, 0.577281, 0.195176
55510.917543924006168, -0.00816768, -0.0034624, -0.00224605, 0.116063, 0.57633, 0.195394
55510.95101023400639, -0.00827663, -0.00346864, -0.00229066, 0.116254, 0.575684, 0.194903
55510.984326595003949, -0.0085858, -0.00350553, -0.00237539, 0.116254, 0.576334, 0.193325
55511.017642957005592, -0.00883583, -0.00351981, -0.00245319, 0.116378, 0.576385, 0.192011
55511.050959291009349, -0.00898742, -0.00353228, -0.00249402, 0.116444, 0.576232, 0.191417
55511.084275624009024, -0.00920379, -0.00355106, -0.00255838, 0.116621, 0.575793, 0.190384
55511.117591957008699, -0.00922491, -0.00354607, -0.00257284, 0.116622, 0.576083, 0.189924
55511.150908262003213, -0.00911476, -0.00351373, -0.00256403, 0.116702, 0.577063, 0.189472
55511.184224624004855, -0.00910823, -0.00350221, -0.0025773, 0.116702, 0.577589, 0.188857
55511.217540929006645, -0.00905393, -0.0034713, -0.00257997, 0.116537, 0.578889, 0.188455
55511.250857291008288, -0.00891038, -0.00343918, -0.00255328, 0.1162, 0.580232, 0.188743
55511.284323624007811, -0.00901486, -0.00342696, -0.00260371, 0.116671, 0.580607, 0.187169
55511.317639957007486, -0.00894113, -0.00340027, -0.00260525, 0.117006, 0.581585, 0.186159
55511.350956257003418, -0.0090662, -0.00342205, -0.00263333, 0.11729, 0.580727, 0.185641
55511.384272591007175, -0.0090928, -0.00340368, -0.00266208, 0.117637, 0.581437, 0.184325
55511.417588957003318, -0.00893011, -0.00336094, -0.00263325, 0.117409, 0.583087, 0.18451
55511.450905291007075, -0.00879435, -0.00332694, -0.00260959, 0.117533, 0.584361, 0.184148
55511.484221595004783, -0.00859062, -0.00330218, -0.00255626, 0.117914, 0.585274, 0.183728
55511.51753792900854, -0.00849755, -0.0032795, -0.00254403, 0.118366, 0.586126, 0.182667
55511.550854295004683, -0.00839672, -0.00326474, -0.00251067, 0.118334, 0.586709, 0.182948
55511.584170624009857, -0.00820339, -0.00324675, -0.00244107, 0.11815, 0.587442, 0.183853
55511.617486957009532, -0.0080462, -0.00321722, -0.00239591, 0.118423, 0.588548, 0.183359
55511.650953291005862, -0.00775153, -0.0031598, -0.00232181, 0.118658, 0.590617, 0.182864
55511.684269624005537, -0.00753127, -0.00311211, -0.00227087, 0.118982, 0.592279, 0.18206
55511.717585924008745, -0.00723495, -0.00306718, -0.00218797, 0.118873, 0.593927, 0.182456
55511.75090229100897, -0.00714693, -0.00305183, -0.00215868, 0.118614, 0.594513, 0.183115
55511.784218591004901, -0.00699971, -0.00302005, -0.00212066, 0.118847, 0.595534, 0.182468
55511.81753495700832, -0.00683489, -0.00299192, -0.00206783, 0.118795, 0.59651, 0.182613
55511.850851291004801, -0.00656526, -0.00296125, -0.00197872, 0.118238, 0.597757, 0.184098
55511.884167591008008, -0.00640522, -0.00293738, -0.00193061, 0.118133, 0.598535, 0.184367
55511.917483929006266, -0.00638026, -0.00293193, -0.00191218, 0.118055, 0.598765, 0.184564
55511.950800257007359, -0.00624913, -0.00291537, -0.00186338, 0.117836, 0.599504, 0.185094
55511.984266591003689, -0.00604195, -0.00288853, -0.00179435, 0.117662, 0.600524, 0.185501
55512.017582957007107, -0.00585173, -0.00286377, -0.00172044, 0.117732, 0.601468, 0.185261
55512.050899291003589, -0.00565279, -0.00285173, -0.00162783, 0.117036, 0.602725, 0.18695
55512.084215624003264, -0.00552143, -0.00284334, -0.00157675, 0.116872, 0.603286, 0.187351
55512.117531957002939, -0.00537447, -0.0028501, -0.00150624, 0.116778, 0.603626, 0.187611
55512.150848291006696, -0.00503661, -0.00282817, -0.00138667, 0.116516, 0.604823, 0.188294
55512.184164624006371, -0.00465661, -0.00278123, -0.00126314, 0.11598, 0.606726, 0.189602
55512.217480957006046, -0.00434371, -0.00276933, -0.00115353, 0.115025, 0.60834, 0.19198
55512.250797229004093, -0.00413249, -0.00274209, -0.00108423, 0.114602, 0.609615, 0.193011
55512.284113595007511, -0.0039961, -0.00273262, -0.00103663, 0.114221, 0.610423, 0.193959
55512.317429929003993, -0.00376071, -0.00271288, -0.000954794, 0.113355, 0.612225, 0.196045
55512.350896248004574, -0.00345366, -0.00267549, -0.000854914, 0.112649, 0.614211, 0.197807
55512.384213157005433, -0.00300694, -0.00263638, -0.000714487, 0.111455, 0.617088, 0.200786
55512.417528957004834, -0.00299362, -0.00264825, -0.000700466, 0.111046, 0.617502, 0.201762
55512.450845262006624, -0.00311571, -0.00267727, -0.000733456, 0.11089, 0.617153, 0.201998
55512.484161624008266, -0.00311471, -0.00269586, -0.000728732, 0.110164, 0.618182, 0.203506
55512.517477924004197, -0.00286787, -0.00266984, -0.000652386, 0.108847, 0.62151, 0.206499
55512.550794262009731, -0.00272944, -0.00265476, -0.000607976, 0.107871, 0.623982, 0.208632
55512.584110800009512, -0.00253464, -0.0026251, -0.000552445, 0.107212, 0.626163, 0.210183
55512.617426957003772, -0.0023267, -0.00260668, -0.00048867, 0.106166, 0.628918, 0.212615
55512.650743290003447, -0.0023476, -0.0026156, -0.000490856, 0.105815, 0.629514, 0.213275
55512.684209624007053, -0.00234802, -0.0026255, -0.000497183, 0.105497, 0.630222, 0.213666
55512.717525929008843, -0.00222548, -0.00262318, -0.000476336, 0.104967, 0.631897, 0.214519
55512.750842233006551, -0.00216069, -0.00261392, -0.00047083, 0.104489, 0.633918, 0.215054
55512.784158624002885, -0.00227623, -0.00261116, -0.000520377, 0.104419, 0.635304, 0.21417
55512.817474924006092, -0.00220923, -0.00258754, -0.000521661, 0.103872, 0.63846, 0.214592
55512.85079126200435, -0.00200741, -0.00258572, -0.00045116, 0.103148, 0.639336, 0.217005
55512.884107595004025, -0.00187665, -0.00258055, -0.000413898, 0.103058, 0.639403, 0.217584
55512.917423929007782, -0.00187162, -0.00257978, -0.000429159, 0.103144, 0.63992, 0.216825
55512.950740257008874, -0.00165446, -0.00256368, -0.000373686, 0.10276, 0.641282, 0.218058
55512.984056624009099, -0.00225958, -0.00262258, -0.000531852, 0.103717, 0.63732, 0.214703
55513.017372957008774, -0.00232377, -0.00261757, -0.000553832, 0.10361, 0.63829, 0.214539
55513.050839262003137, -0.00231606, -0.00261012, -0.000564484, 0.103316, 0.640121, 0.214592
55513.084155624004779, -0.00260495, -0.0026111, -0.00069537, 0.103799, 0.642193, 0.210659
55513.117471957004454, -0.00256839, -0.0026051, -0.000686886, 0.103431, 0.643579, 0.211352
55513.15078829000413, -0.00244789, -0.00260448, -0.000648201, 0.102867, 0.644527, 0.212981
55513.184104590007337, -0.00251091, -0.00258442, -0.000697459, 0.103006, 0.647023, 0.211265
55513.217420957007562, -0.00232868, -0.00255018, -0.000653219, 0.101969, 0.651628, 0.213494
55513.250737262009352, -0.00210551, -0.00253984, -0.000593997, 0.101806, 0.652026, 0.214352
55513.284053595009027, -0.00236663, -0.00253067, -0.000669893, 0.102155, 0.65275, 0.212754
55513.317369924006925, -0.00218236, -0.00253002, -0.000614817, 0.101894, 0.65273, 0.213901
55513.350686262005183, -0.00216704, -0.00251967, -0.000621581, 0.102203, 0.652918, 0.212933
55513.384152590006124, -0.00221588, -0.00252065, -0.000639474, 0.102758, 0.651749, 0.211515
55513.417468957006349, -0.00235093, -0.00253675, -0.000681047, 0.103453, 0.649542, 0.209604
55513.450785290006024, -0.00236629, -0.00251194, -0.000702817, 0.104273, 0.649731, 0.207239
55513.484101624009782, -0.00282379, -0.00251167, -0.000860222, 0.105169, 0.649655, 0.203417
55513.517417957009457, -0.00283598, -0.00249967, -0.0008603, 0.105005, 0.650773, 0.20375
55513.550734262003971, -0.00292511, -0.00249124, -0.00088992, 0.104602, 0.652657, 0.204231
55513.584050590005063, -0.00288274, -0.00245444, -0.000890494, 0.104604, 0.655235, 0.203813
55513.617366957005288, -0.00243722, -0.00244793, -0.000731688, 0.103942, 0.655686, 0.206735
55513.650683290004963, -0.00227885, -0.00245103, -0.000684104, 0.104437, 0.653879, 0.206138
55513.683999595006753, -0.0021633, -0.0024539, -0.000654588, 0.10383, 0.655114, 0.207495
55513.717315957008395, -0.0023759, -0.00248351, -0.000707439, 0.103249, 0.655092, 0.208583
55513.750782262010034, -0.00245579, -0.00250109, -0.000718318, 0.102598, 0.655814, 0.209993
55513.784098595009709, -0.00266333, -0.0024998, -0.0007887, 0.102505, 0.656439, 0.209728
55513.817414928009384, -0.00235429, -0.00245615, -0.000709602, 0.102945, 0.657433, 0.209059
55513.85073129000375, -0.00270269, -0.00247511, -0.000825025, 0.103067, 0.656437, 0.208302
55513.884047562009073, -0.00272265, -0.00247426, -0.000832472, 0.103008, 0.656668, 0.208374
55513.917363928005216, -0.0028466, -0.00246459, -0.00087169, 0.102866, 0.657594, 0.208467
55513.950680257003114, -0.00292035, -0.00244736, -0.000893746, 0.102829, 0.658611, 0.208399
55513.983996562004904, -0.00307112, -0.00243166, -0.000944095, 0.103098, 0.658789, 0.207693
55514.017311667004833, -0.00310045, -0.00241843, -0.000943632, 0.103097, 0.659476, 0.207655
55514.050623586008442, -0.00306739, -0.00237963, -0.000937763, 0.103282, 0.660861, 0.207161
55514.084085497008346, -0.00294591, -0.00234276, -0.000907537, 0.102711, 0.663718, 0.208147
55514.117397437003092, -0.00294657, -0.00231784, -0.000917739, 0.102046, 0.666062, 0.209405
55514.150709401008498, -0.00297835, -0.00232083, -0.000929403, 0.101737, 0.666573, 0.210061
55514.184021275003033, -0.00308303, -0.00230878, -0.00096604, 0.101815, 0.666538, 0.210014
55514.217333272004907, -0.00287383, -0.00230995, -0.000898028, 0.102029, 0.666546, 0.209277
55514.250645175008685, -0.00273261, -0.00230683, -0.000860994, 0.101266, 0.668381, 0.210703
55514.283957143008593, -0.00266027, -0.00229143, -0.000850265, 0.101313, 0.668563, 0.210613
55514.317269079008838, -0.00243249, -0.00228357, -0.000786903, 0.101498, 0.668757, 0.209917
55514.350581019003585, -0.00222507, -0.0022697, -0.000737449, 0.101435, 0.66928, 0.209889
55514.383892893005395, -0.00212762, -0.0022723, -0.000711752, 0.101415, 0.669352, 0.209846
55514.417354866003734, -0.00200008, -0.00227956, -0.00067348, 0.101482, 0.669565, 0.209408
55514.450666801007173, -0.00197944, -0.00228692, -0.000654166, 0.101291, 0.670322, 0.209522
55514.483978818003379, -0.00195771, -0.0022932, -0.000637296, 0.100949, 0.671293, 0.209998
55514.517290673007665, -0.00196553, -0.00230015, -0.000630143, 0.100669, 0.672047, 0.210397
55514.550602608003828, -0.00198034, -0.00231098, -0.000623752, 0.100267, 0.673059, 0.211048
55514.583914615002868, -0.00195088, -0.00231199, -0.000615316, 0.0996981, 0.673991, 0.212239
55514.617226479007513, -0.00190623, -0.00231363, -0.000604055, 0.0992082, 0.674813, 0.213253
55514.650538415007759, -0.00193758, -0.00231754, -0.000615157, 0.0986896, 0.675474, 0.214513
55514.68385032700462, -0.0019181, -0.00232591, -0.000610192, 0.0982312, 0.676305, 0.21551
55514.717162286004168, -0.00191244, -0.00233664, -0.000608601, 0.0979555, 0.67691, 0.216127
55514.750474188003864, -0.0018978, -0.00234744, -0.000605808, 0.0976939, 0.6775, 0.216722
55514.783936118008569, -0.00186578, -0.00235165, -0.000603069, 0.0974609, 0.677751, 0.217386
55514.817248040009872, -0.00184642, -0.00235336, -0.000603884, 0.0972119, 0.677925, 0.218137
55514.850559947008151, -0.0018985, -0.00235218, -0.000624268, 0.0969451, 0.677942, 0.218982
55514.883871911006281, -0.00189853, -0.00235611, -0.000625925, 0.0968336, 0.678109, 0.219307
55514.917183851008303, -0.00194492, -0.00235256, -0.000644115, 0.0966375, 0.678011, 0.219982
55514.950495782009966, -0.00201413, -0.00234915, -0.000666782, 0.0963766, 0.677991, 0.220782
55514.98380775100668, -0.00205811, -0.00234618, -0.00068168, 0.0961269, 0.678048, 0.221513
55515.017120922006143, -0.00205212, -0.0023457, -0.000678566, 0.0959966, 0.678232, 0.22184
55515.050437290003174, -0.00204393, -0.00234055, -0.000678226, 0.0958212, 0.678287, 0.222365
55515.083753595004964, -0.00202117, -0.00233886, -0.000669002, 0.0956353, 0.67858, 0.222807
55515.117219957006455, -0.00203422, -0.00233684, -0.000667708, 0.0955963, 0.678748, 0.22291
55515.15053629000613, -0.00204962, -0.00233304, -0.000667063, 0.0955068, 0.678926, 0.223143
55515.183852623005805, -0.00211582, -0.0023303, -0.000677717, 0.0954506, 0.67908, 0.223297
55515.217168957009562, -0.00215592, -0.00232815, -0.000682544, 0.095459, 0.679211, 0.223266
55515.250485290009237, -0.00217905, -0.00232653, -0.000682609, 0.0954159, 0.679407, 0.223345
55515.283801595003752, -0.00211782, -0.00232411, -0.000667422, 0.0952525, 0.67964, 0.223736
55515.317117923004844, -0.00202416, -0.00231794, -0.000648365, 0.0950524, 0.679811, 0.224268
55515.350434638006845, -0.0019475, -0.00231616, -0.000633658, 0.0949881, 0.679982, 0.224466
55515.383750623004744, -0.00190695, -0.00231726, -0.000627345, 0.0949803, 0.680153, 0.224511
55515.417066957008501, -0.00186093, -0.00231982, -0.000619656, 0.0948935, 0.680416, 0.224724
55515.450383262003015, -0.00185277, -0.0023226, -0.000621898, 0.0948089, 0.680624, 0.224928
55515.4838496230077, -0.00183432, -0.00232607, -0.000621247, 0.0947149, 0.680842, 0.22516
55515.517165957004181, -0.00176548, -0.00232989, -0.000612751, 0.0945407, 0.681036, 0.225603
55515.550482290003856, -0.00174615, -0.00233516, -0.000613236, 0.0943704, 0.681263, 0.226041
55515.583798590007063, -0.00173984, -0.00233937, -0.000619335, 0.094261, 0.681376, 0.226375
55515.617114957007288, -0.00175921, -0.00234427, -0.00063053, 0.0942383, 0.681441, 0.226476
55515.650431261004996, -0.00173482, -0.00234918, -0.000628859, 0.0941014, 0.681616, 0.22685
55515.683747623006639, -0.00168258, -0.00235471, -0.00062174, 0.093921, 0.681841, 0.227339
55515.717063928008429, -0.00162623, -0.00235776, -0.000615466, 0.093867, 0.68192, 0.227546
55515.750380290010071, -0.00158352, -0.00236207, -0.000610935, 0.0938316, 0.682015, 0.227678
55515.783696590006002, -0.0015662, -0.00236642, -0.000612124, 0.0937407, 0.68213, 0.227943
55515.817162923005526, -0.00156309, -0.00237195, -0.000618551, 0.0936606, 0.682226, 0.228172
55515.850479257009283, -0.00159024, -0.0023768, -0.00063243, 0.0936565, 0.682211, 0.228211
55515.883795623005426, -0.00158443, -0.00238115, -0.000635038, 0.0935209, 0.682339, 0.228557
55515.917111957009183, -0.00158975, -0.0023848, -0.000640593, 0.0932921, 0.682515, 0.22914
55515.950428290008858, -0.00158132, -0.00238801, -0.000639903, 0.0931379, 0.682651, 0.229532
55515.983744595003373, -0.00160996, -0.00238995, -0.000651965, 0.09306, 0.682667, 0.229743
55516.017060957005015, -0.00168873, -0.00239326, -0.000670504, 0.0929873, 0.682733, 0.229911
55516.050377257008222, -0.0017657, -0.00239456, -0.00069005, 0.0929812, 0.682703, 0.229906
55516.083693623004365, -0.00185154, -0.00239401, -0.000709633, 0.0928504, 0.68278, 0.230208
55516.117009923007572, -0.0019221, -0.00239522, -0.000727061, 0.09271, 0.682876, 0.23052
55516.150326290007797, -0.00203547, -0.0023948, -0.000758168, 0.0927226, 0.682771, 0.230467
55516.183792590003577, -0.00210819, -0.0023903, -0.000780126, 0.0926354, 0.68275, 0.23068
55516.217108923003252, -0.00217648, -0.00238686, -0.000803029, 0.0925548, 0.682731, 0.230874
55516.250425290003477, -0.00226145, -0.00238697, -0.0008279, 0.0926561, 0.68259, 0.230605
55516.283741604005627, -0.00230155, -0.00238525, -0.00084186, 0.0926199, 0.682555, 0.230692
55516.317057923006359, -0.00232717, -0.00238239, -0.000856258, 0.0925644, 0.682491, 0.23084
55516.350374261004617, -0.00232053, -0.00237896, -0.00085972, 0.0925083, 0.682476, 0.230983
55516.38369062300626, -0.00232197, -0.00237725, -0.000864146, 0.0924406, 0.682484, 0.231135
55516.41700692800805, -0.00234896, -0.00237769, -0.000867397, 0.0925214, 0.682409, 0.230891
55516.450323257005948, -0.00238512, -0.0023796, -0.000868992, 0.0925979, 0.682371, 0.230631
55516.483639623009367, -0.00239643, -0.00238605, -0.000867689, 0.0925444, 0.682514, 0.230691
55516.51710592800373, -0.00238983, -0.00238894, -0.000864978, 0.0923095, 0.6828, 0.231232
55516.550422257008904, -0.00242866, -0.00240082, -0.000862692, 0.0920243, 0.683442, 0.231768
55516.583738595007162, -0.00244636, -0.00240879, -0.000855503, 0.0919349, 0.683855, 0.231829
55516.61705489900487, -0.00245555, -0.00241627, -0.000846334, 0.0918464, 0.684264, 0.231882
55516.650371290008479, -0.00246141, -0.00242319, -0.000836784, 0.0917941, 0.684615, 0.231861
55516.683687623008154, -0.00247554, -0.00243234, -0.000828832, 0.0918242, 0.684925, 0.231653
55516.717003914003726, -0.00248171, -0.00244036, -0.000820107, 0.0915283, 0.6856, 0.232202
55516.75032026100962, -0.00249848, -0.0024481, -0.000817676, 0.0912731, 0.686183, 0.232729
55516.783636590007518, -0.00251614, -0.00245871, -0.000813794, 0.091065, 0.686812, 0.233138
55516.816952904009668, -0.00252876, -0.00247128, -0.000809644, 0.0908782, 0.687458, 0.23351
55516.850269261005451, -0.00254861, -0.00247975, -0.000808544, 0.0908602, 0.687746, 0.233526
55516.883736023009988, -0.00258634, -0.00248367, -0.000816053, 0.0908609, 0.687869, 0.233565
55516.91705195200484, -0.00261269, -0.00248687, -0.000821266, 0.0906855, 0.688242, 0.234006
55516.950368290003098, -0.00264421, -0.00249463, -0.000825652, 0.0907347, 0.688406, 0.233865
55516.983684595004888, -0.00269117, -0.00249888, -0.000832987, 0.0908687, 0.688361, 0.233528
55517.01700095700653, -0.00271171, -0.00249895, -0.0008354, 0.0906557, 0.688753, 0.23406
55517.050317290006205, -0.00272677, -0.00250279, -0.000837409, 0.0906382, 0.6889, 0.234125
55517.083633623005881, -0.00274649, -0.00250403, -0.000841336, 0.0905243, 0.689109, 0.234423
55517.116949928007671, -0.00276066, -0.00250441, -0.00084679, 0.0903617, 0.689403, 0.234843
55517.150266290009313, -0.0027885, -0.00250608, -0.000848397, 0.0903421, 0.689522, 0.234874
55517.183582623008988, -0.00283272, -0.00250737, -0.000858801, 0.0902381, 0.689815, 0.235116
55517.217048923004768, -0.00284249, -0.00250568, -0.000871658, 0.0899896, 0.690242, 0.235739
55517.250365290004993, -0.00284801, -0.00249944, -0.000874357, 0.0897809, 0.690584, 0.236262
55517.283681595006783, -0.00286414, -0.00249559, -0.000882132, 0.0896424, 0.69085, 0.236601
55517.316997923007875, -0.00289083, -0.00249775, -0.00089656, 0.0894875, 0.691177, 0.236967
55517.3503142900081, -0.00291168, -0.002502, -0.000905908, 0.0893914, 0.691377, 0.237191
55517.38363059500989, -0.00293761, -0.00249679, -0.000917872, 0.0894526, 0.691317, 0.237024
55517.416946928009565, -0.00297249, -0.00248813, -0.000935579, 0.0894004, 0.691481, 0.237146
55517.450263261009241, -0.00300407, -0.00248298, -0.00094808, 0.0893225, 0.691665, 0.237343
55517.483579590007139, -0.00301663, -0.00247928, -0.000958664, 0.089252, 0.691809, 0.237529
55517.516895956003282, -0.00303062, -0.00247412, -0.000970276, 0.0891255, 0.69204, 0.237877
55517.550362290006888, -0.00303224, -0.00247532, -0.000969204, 0.0893352, 0.691696, 0.237295
55517.583678623006563, -0.00306091, -0.00247165, -0.000988227, 0.0893094, 0.691733, 0.237394
55517.616994956006238, -0.00306268, -0.00246337, -0.000996382, 0.0891086, 0.69203, 0.237992
55517.650311742007034, -0.00307401, -0.00245658, -0.0010063, 0.0891604, 0.691908, 0.23787
55517.683627595004509, -0.00306805, -0.00245747, -0.00100004, 0.0892854, 0.691735, 0.237471
55517.716944037005305, -0.00307983, -0.00245342, -0.00100881, 0.0894344, 0.691461, 0.237056
55517.750260261003859, -0.00309907, -0.00243977, -0.00102449, 0.0893825, 0.691387, 0.237301
55517.783576594003534, -0.0031197, -0.00243042, -0.00103993, 0.089343, 0.691296, 0.237514
55517.816892961003759, -0.0031251, -0.00242537, -0.00104455, 0.0895681, 0.690966, 0.236825
55517.850209290008934, -0.00313035, -0.00241596, -0.00104883, 0.089752, 0.690659, 0.23627
55517.883525590004865, -0.00314749, -0.00240396, -0.00106404, 0.0898547, 0.690328, 0.236063
55517.916991956008133, -0.00315024, -0.00239486, -0.00106571, 0.0899563, 0.690129, 0.23575
55517.950308256004064, -0.00315024, -0.00239267, -0.00106224, 0.0900521, 0.690119, 0.235376
55517.983624623004289, -0.00313898, -0.00239612, -0.00105295, 0.0902439, 0.69024, 0.234585
55518.016940923007496, -0.00313914, -0.00239647, -0.0010518, 0.0904042, 0.690245, 0.234009
55518.050257290007721, -0.00313812, -0.00239495, -0.0010508, 0.090464, 0.690213, 0.233788
55518.083573590003652, -0.00313207, -0.00239762, -0.0010394, 0.0905054, 0.690441, 0.233432
55518.116889956007071, -0.00312771, -0.00240115, -0.00102925, 0.0905526, 0.690681, 0.233061
55518.150206261008861, -0.00313963, -0.00240969, -0.00102645, 0.0905479, 0.691048, 0.232959
55518.18352259000676, -0.00314679, -0.00241683, -0.001017, 0.0905097, 0.691551, 0.232831
55518.216838956002903, -0.00315393, -0.00242529, -0.00100794, 0.0909494, 0.691907, 0.231004
55518.250305261004542, -0.00315386, -0.00242362, -0.000999353, 0.0910766, 0.692012, 0.23031
55518.283621623006184, -0.00315414, -0.00241968, -0.000994023, 0.0908857, 0.69205, 0.230874
55518.316937894007424, -0.00315827, -0.00242107, -0.000989537, 0.090805, 0.6923, 0.231025
55518.350254290009616, -0.00317948, -0.0024204, -0.000997369, 0.0906325, 0.692262, 0.231849
55518.383570623009291, -0.0031963, -0.00241819, -0.00100415, 0.0904533, 0.69217, 0.232682
55518.416886956008966, -0.00321172, -0.00241682, -0.00100924, 0.0903252, 0.692081, 0.233279
55518.450203290005447, -0.00322382, -0.00241296, -0.00101452, 0.0901536, 0.691796, 0.234074
55518.483519623005122, -0.00324114, -0.00239867, -0.00102703, 0.0898918, 0.690704, 0.235529
55518.516835928006913, -0.0032622, -0.00238066, -0.00104047, 0.0896434, 0.689232, 0.236998
55518.550152290008555, -0.00327069, -0.00237348, -0.00104477, 0.0894987, 0.688725, 0.237715
55518.58346862300823, -0.00328455, -0.00237316, -0.0010528, 0.0893918, 0.688692, 0.238398
55518.616934956007753, -0.00329949, -0.00236375, -0.00106305, 0.0894575, 0.687344, 0.23872
55518.650251256003685, -0.00330815, -0.00236277, -0.00106823, 0.0895395, 0.686956, 0.23869
55518.68356762300391, -0.00332111, -0.00235234, -0.00107795, 0.0894509, 0.685673, 0.239565
55518.716883923007117, -0.00332673, -0.00233918, -0.00108238, 0.0893835, 0.684114, 0.240168
55518.750200256006792, -0.00333161, -0.00232597, -0.00108699, 0.0893226, 0.682407, 0.240775
55518.783516623007017, -0.0033398, -0.00231014, -0.00109436, 0.0891294, 0.680507, 0.242013
55518.816832956006692, -0.00334582, -0.00230409, -0.00109615, 0.0889151, 0.680229, 0.24287
55518.850149304009392, -0.00334691, -0.00229937, -0.00109492, 0.0887316, 0.680016, 0.243462
55518.883465623002849, -0.00335323, -0.00228871, -0.00109866, 0.0883221, 0.679293, 0.24516
55518.916781899009948, -0.00335201, -0.00228888, -0.00109382, 0.0883972, 0.679299, 0.244637
55518.950248232009471, -0.00335419, -0.00229469, -0.001093, 0.088538, 0.679847, 0.244098
55518.983564623005805, -0.00337553, -0.00229408, -0.00110631, 0.0883323, 0.679439, 0.245628
55519.01688095600548, -0.00337983, -0.00228934, -0.0011044, 0.088167, 0.679352, 0.245932
55519.050197232005303, -0.00338432, -0.00228843, -0.00110391, 0.0879756, 0.680028, 0.246361
55519.083513590005168, -0.00338087, -0.00228224, -0.00110554, 0.0878066, 0.678677, 0.24728
55519.116829956008587, -0.00337925, -0.00227731, -0.0011055, 0.0874892, 0.678853, 0.248132
55519.150146256004518, -0.00338425, -0.00227868, -0.00110595, 0.0873049, 0.680854, 0.248183
55519.183462590008276, -0.00339706, -0.0022833, -0.00111037, 0.0871583, 0.683469, 0.248301
55519.216778928006534, -0.00339933, -0.00228329, -0.00111016, 0.0870837, 0.684283, 0.248282
55519.250095261006209, -0.00341344, -0.00228831, -0.00111385, 0.0869597, 0.687782, 0.248029
55519.283411623007851, -0.00341398, -0.00229178, -0.0011138, 0.0868376, 0.691391, 0.247369
55519.31687792800949, -0.00341629, -0.00229303, -0.00111341, 0.0868092, 0.692741, 0.247052
55519.35019428900705, -0.00343689, -0.00229188, -0.00112401, 0.086522, 0.693663, 0.248469
55519.38351059400884, -0.0034629, -0.00229393, -0.00113696, 0.0862176, 0.696296, 0.249661
55519.416826923006738, -0.00346499, -0.00229135, -0.0011382, 0.0860785, 0.696543, 0.249985
55519.450143856003706, -0.00347631, -0.00228712, -0.00114207, 0.0858128, 0.697147, 0.250714
55519.483459623006638, -0.00349208, -0.00228519, -0.00114803, 0.0855834, 0.697965, 0.25152
55519.516775956006313, -0.00349805, -0.00228147, -0.0011496, 0.0854246, 0.697663, 0.252036
55519.550092289005988, -0.00349196, -0.00227639, -0.00114572, 0.0852745, 0.697185, 0.252079
55519.583408594007778, -0.00351359, -0.00227442, -0.00115553, 0.085149, 0.695808, 0.253585
55519.61672492800426, -0.00352107, -0.00226844, -0.00115925, 0.0849163, 0.693935, 0.254857
55519.650191261003783, -0.00351943, -0.00225641, -0.0011592, 0.0845247, 0.690511, 0.256405
55519.683507594003459, -0.00352762, -0.00224843, -0.00116618, 0.0843634, 0.686793, 0.258008
55519.716823923008633, -0.00354849, -0.00225064, -0.00117629, 0.0843935, 0.687051, 0.258774
55519.750140232004924, -0.00356132, -0.00224727, -0.00118651, 0.0844022, 0.685131, 0.259886
55519.783456589007983, -0.00356537, -0.0022413, -0.00118155, 0.0841028, 0.683719, 0.260547
55519.816772928003047, -0.00357832, -0.00223909, -0.00119253, 0.0843837, 0.682369, 0.260852
55519.850089289007883, -0.00357813, -0.00223803, -0.00119513, 0.0845513, 0.681885, 0.26066
55519.883405589003814, -0.00358518, -0.00223702, -0.00119695, 0.0846575, 0.681658, 0.260598
55519.916721956004039, -0.00360082, -0.00223358, -0.00120204, 0.0847782, 0.680531, 0.260796
55519.950038289003714, -0.00359914, -0.00223036, -0.00120392, 0.0848609, 0.679494, 0.260839
55519.98335461300303, -0.00360047, -0.00222956, -0.0012067, 0.084975, 0.679338, 0.260651
55520.016820956006995, -0.00359858, -0.00222901, -0.00120664, 0.0851845, 0.679374, 0.259963
55520.050137256002927, -0.00360364, -0.00223154, -0.00120767, 0.0854601, 0.680715, 0.259027
55520.083453561004717, -0.00361791, -0.00223185, -0.00121408, 0.0856503, 0.681189, 0.258926
55520.116769956010103, -0.00362056, -0.00223039, -0.00121799, 0.0856823, 0.680804, 0.259261
55520.150086289009778, -0.00362213, -0.00222899, -0.00121987, 0.0857127, 0.680348, 0.259417
55520.183402589005709, -0.00363229, -0.00222779, -0.00122458, 0.085782, 0.680114, 0.259573
55520.216718923009466, -0.00365034, -0.00222765, -0.00123153, 0.0856125, 0.679944, 0.260668
55520.250035227007174, -0.00364308, -0.00222048, -0.00122793, 0.08551, 0.676811, 0.260993
55520.283351623009366, -0.00363663, -0.00221458, -0.00122762, 0.085471, 0.674164, 0.261466
55520.316667927007074, -0.00363745, -0.00221163, -0.00122812, 0.085444, 0.672854, 0.261781
55520.350134289008565, -0.00363121, -0.00220706, -0.00122886, 0.0853044, 0.670485, 0.262618
55520.383450594003079, -0.00363185, -0.00220546, -0.00123253, 0.0851026, 0.669091, 0.263814
55520.416766956004722, -0.00363126, -0.00220538, -0.00123399, 0.0849431, 0.668585, 0.264454
55520.450083289004397, -0.00363008, -0.00220601, -0.00123539, 0.084745, 0.668377, 0.265079
55520.483399623008154, -0.00363488, -0.00221023, -0.00123913, 0.08443, 0.669648, 0.26586
55520.516715927005862, -0.00362623, -0.00220905, -0.00123905, 0.0839993, 0.667941, 0.267089
55520.550032289007504, -0.00363044, -0.00221098, -0.00124365, 0.0835081, 0.667981, 0.2687
55520.583348623003985, -0.0036273, -0.00221017, -0.00124406, 0.0833067, 0.667305, 0.269245
55520.61666495600366, -0.00363142, -0.00221055, -0.00124817, 0.0830422, 0.667265, 0.270268
55520.649981289003335, -0.00363942, -0.00221283, -0.00125635, 0.0826785, 0.668168, 0.271744
55520.683447594004974, -0.00363817, -0.00221166, -0.00125724, 0.0824268, 0.667323, 0.272529
55520.716763956006616, -0.00363906, -0.00221318, -0.00125784, 0.0821675, 0.668438, 0.272737
55520.750080261008407, -0.00364226, -0.0022149, -0.00125628, 0.0820464, 0.669885, 0.272216
55520.783396589009499, -0.0036508, -0.00221579, -0.00125723, 0.0817944, 0.67098, 0.272299
55520.816712956009724, -0.00363425, -0.00221447, -0.00124863, 0.0816068, 0.670354, 0.271555
55520.850029289009399, -0.00362163, -0.00221367, -0.00124022, 0.0816347, 0.67005, 0.270425
55520.88334562300588, -0.00361157, -0.00221446, -0.00123451, 0.0818849, 0.671134, 0.268987
55520.916661927003588, -0.00361155, -0.00221569, -0.0012319, 0.0822368, 0.673029, 0.267502
55520.949978261007345, -0.00360017, -0.00221424, -0.00122187, 0.0823047, 0.672345, 0.266164
55520.983294589008437, -0.0035899, -0.00221363, -0.00121666, 0.0822388, 0.671583, 0.265787
55521.016610956008662, -0.00358522, -0.00221431, -0.00121092, 0.0824373, 0.672677, 0.264287
55521.050077261003025, -0.00357546, -0.00221269, -0.00120223, 0.0828051, 0.672634, 0.262224
55521.083393565008009, -0.00357723, -0.00221188, -0.00120155, 0.0828939, 0.672527, 0.261856
55521.116709956004343, -0.00358253, -0.0022114, -0.00120538, 0.0831072, 0.672638, 0.261567
55521.150026261006133, -0.00357988, -0.00221015, -0.00120304, 0.0833714, 0.672565, 0.260404
55521.183342565003841, -0.00358125, -0.00221025, -0.00120704, 0.0834135, 0.672425, 0.260689
55521.21665895600745, -0.00357218, -0.00220859, -0.00120443, 0.0834134, 0.671289, 0.260549
55521.24997526100924, -0.00355304, -0.0022072, -0.00119348, 0.0835452, 0.670846, 0.259126
55521.283291589003056, -0.0035259, -0.00220435, -0.00118008, 0.0836089, 0.669376, 0.257881
55521.31660792700859, -0.00351576, -0.00220386, -0.00117369, 0.0836245, 0.669228, 0.25735
55521.349924256006489, -0.00351161, -0.00220907, -0.0011653, 0.0833043, 0.671197, 0.257771
55521.383390589006012, -0.00350757, -0.00220834, -0.00116344, 0.0832961, 0.670831, 0.257683
55521.41670692300977, -0.00349708, -0.00220739, -0.0011553, 0.0832627, 0.670605, 0.257359
55521.450023289005912, -0.00349362, -0.00220791, -0.00115031, 0.0830661, 0.670519, 0.257634
55521.48333962300967, -0.00349455, -0.00220858, -0.00115075, 0.0829775, 0.670594, 0.257851
55521.516655956009345, -0.00349521, -0.00221183, -0.00114762, 0.0827784, 0.671241, 0.258211
55521.549972256005276, -0.00349706, -0.00221353, -0.00114864, 0.0827148, 0.671564, 0.258374
55521.583288589004951, -0.00349632, -0.00221294, -0.00114962, 0.0825681, 0.671358, 0.258646
55521.616604956005176, -0.00351454, -0.00222214, -0.00115793, 0.0823881, 0.672961, 0.259106
55521.649921261006966, -0.00352115, -0.00222459, -0.00116034, 0.0821676, 0.673329, 0.259494
55521.683237561002898, -0.00356424, -0.00223326, -0.00118007, 0.0819923, 0.674857, 0.259761
55521.716553956008283, -0.00359533, -0.00224156, -0.00118645, 0.0819847, 0.676189, 0.259782
55521.750020256004063, -0.00360731, -0.00224157, -0.00119563, 0.0818599, 0.676246, 0.259849
55521.783336622007482, -0.0036319, -0.00224605, -0.0012107, 0.0819629, 0.676846, 0.259459
55521.816652956003963, -0.00364501, -0.00224847, -0.00121741, 0.0819896, 0.677139, 0.259294
55521.849969289003639, -0.00366277, -0.00225259, -0.00122674, 0.0820941, 0.677566, 0.258927
55521.883285622003314, -0.00368887, -0.00225554, -0.001245, 0.0821821, 0.677953, 0.258332
55521.916601894008636, -0.00371215, -0.00225883, -0.00126062, 0.082389, 0.67831, 0.257569
55521.949918261008861, -0.00372491, -0.00226121, -0.00126718, 0.0827119, 0.678532, 0.256829
55521.983234594008536, -0.00374695, -0.00226176, -0.00128585, 0.0829607, 0.6787, 0.255812
55522.016550956002902, -0.00376177, -0.00226538, -0.00129212, 0.0831218, 0.678908, 0.255326
55522.049867289009853, -0.0037844, -0.00226419, -0.00131162, 0.0832133, 0.678952, 0.254538
55522.08333362700796, -0.00378872, -0.0022598, -0.00131718, 0.0834316, 0.678793, 0.253878
55522.116649956005858, -0.00381527, -0.00225871, -0.0013377, 0.0836926, 0.678736, 0.252655
55522.149966256009066, -0.00381173, -0.00224922, -0.00134376, 0.0836472, 0.678486, 0.252561
55522.183282594007323, -0.00382448, -0.00223704, -0.00136086, 0.0835644, 0.678136, 0.252226
55522.216598922008416, -0.00383765, -0.00223485, -0.0013678, 0.0833665, 0.678073, 0.25253
55522.24991522700293, -0.00384101, -0.00223277, -0.00136915, 0.0832355, 0.678023, 0.252815
55522.283231589004572, -0.00384376, -0.00223081, -0.00137119, 0.0830965, 0.677973, 0.253109
55522.316547956004797, -0.00383475, -0.00222925, -0.00136516, 0.082926, 0.678014, 0.253701
55522.349864260009781, -0.00383894, -0.00222729, -0.00136702, 0.0830118, 0.677934, 0.253411
55522.383180694007024, -0.00386232, -0.00223201, -0.00138039, 0.083161, 0.677795, 0.252799
55522.416496956007904, -0.00386848, -0.00222455, -0.00138923, 0.0832258, 0.677483, 0.252468
55522.449963256003684, -0.00387519, -0.00220949, -0.00140078, 0.0832149, 0.676954, 0.252329
55522.483279622007103, -0.00387615, -0.00220579, -0.00140147, 0.0832006, 0.676873, 0.252352
55522.516600308008492, -0.00387615, -0.00220579, -0.00140147, 0.0832006, 0.676873, 0.252352
55522.54991228900326, -0.00388936, -0.0021827, -0.0014124, 0.083263, 0.675972, 0.252033
55522.58322859400505, -0.00390455, -0.00214675, -0.00142449, 0.0832768, 0.674621, 0.251829
55522.616544922006142, -0.00391301, -0.00212576, -0.00143179, 0.0833011, 0.673746, 0.251677
55522.649861289006367, -0.00392226, -0.00210923, -0.00143842, 0.0833081, 0.672985, 0.251631
55522.683177622006042, -0.00393556, -0.00208225, -0.00144846, 0.0832777, 0.67168, 0.251729
55522.716493922009249, -0.00395336, -0.00204183, -0.00146297, 0.083236, 0.66958, 0.251889
55522.749810289009474, -0.00396461, -0.0020078, -0.00147313, 0.0831615, 0.667663, 0.252183
55522.783276622008998, -0.00396282, -0.00197143, -0.00147468, 0.0826804, 0.666038, 0.253715
55522.816592956005479, -0.00396136, -0.00195306, -0.00147645, 0.0824087, 0.664998, 0.254702
55522.849909289005154, -0.00395481, -0.00193098, -0.00147501, 0.0820124, 0.663638, 0.256036
55522.883225594006944, -0.00395951, -0.00190604, -0.00147938, 0.0815619, 0.661671, 0.257904
55522.916541922008037, -0.00395682, -0.00189253, -0.00147816, 0.081245, 0.660555, 0.259048
55522.949858260006295, -0.00395799, -0.00188583, -0.00147794, 0.0809152, 0.660211, 0.260247
55522.983174622007937, -0.00395895, -0.00187671, -0.00147892, 0.0807025, 0.658509, 0.261404
55523.016490922003868, -0.00396029, -0.00187076, -0.00147796, 0.0805886, 0.656858, 0.262144
55523.049807289004093, -0.00395609, -0.0018693, -0.00147391, 0.0804826, 0.656023, 0.262464
55523.083123622003768, -0.00395909, -0.00186928, -0.00147443, 0.0804307, 0.656182, 0.262645
55523.116439956007525, -0.00396474, -0.00186778, -0.00147293, 0.0802442, 0.655442, 0.263456
55523.149906289007049, -0.00397735, -0.00186766, -0.0014743, 0.0802528, 0.656329, 0.263212
55523.183222594008839, -0.00399715, -0.00186883, -0.00148014, 0.0803671, 0.659427, 0.262055
55523.216538913009572, -0.00400208, -0.00186991, -0.00147446, 0.0802436, 0.659848, 0.261533
55523.249855260008189, -0.00401032, -0.00187068, -0.00146551, 0.0801952, 0.657651, 0.261427
55523.283171589006088, -0.00401234, -0.0018707, -0.00146599, 0.0804727, 0.657175, 0.260592
55523.316487956006313, -0.00401262, -0.00187115, -0.00146404, 0.0805609, 0.656557, 0.260243
55523.349804294004571, -0.00401402, -0.00187285, -0.00146129, 0.0806448, 0.655132, 0.260084
55523.383120622005663, -0.00401758, -0.00187368, -0.00146, 0.0806833, 0.654296, 0.260031
55523.41643692200887, -0.00402827, -0.001877, -0.0014538, 0.080576, 0.652664, 0.259813
55523.449753260007128, -0.00403083, -0.00187541, -0.00145666, 0.0806685, 0.65375, 0.258937
55523.483219622008619, -0.00402881, -0.00187441, -0.00146047, 0.0808304, 0.654742, 0.257859
55523.516535894006665, -0.00402185, -0.00187151, -0.00146849, 0.0810007, 0.656775, 0.257328
55523.549852260010084, -0.00401633, -0.00186789, -0.00147384, 0.0813471, 0.657744, 0.256815
55523.583168589007983, -0.00401243, -0.00186715, -0.00147449, 0.0814981, 0.657983, 0.256309
55523.616484922007658, -0.00400793, -0.00186548, -0.00147611, 0.0816859, 0.658559, 0.25554
55523.649801260005916, -0.00399761, -0.00186018, -0.00148107, 0.0819891, 0.660506, 0.254541
55523.683117589003814, -0.00398989, -0.0018554, -0.0014864, 0.0822712, 0.661825, 0.254238
55523.716433927009348, -0.00398297, -0.00185057, -0.00149014, 0.0823168, 0.664446, 0.253492
55523.749750289003714, -0.00398456, -0.00184766, -0.00149212, 0.0823631, 0.665341, 0.253473
55523.783066622003389, -0.00398357, -0.00184756, -0.00149225, 0.0824085, 0.665195, 0.253589
55523.816532955002913, -0.00398835, -0.00184466, -0.0014941, 0.082452, 0.665777, 0.253924
55523.84984928900667, -0.00398767, -0.00184497, -0.00149345, 0.0824007, 0.666114, 0.253725
55523.88316559400846, -0.00398065, -0.00184656, -0.00149157, 0.0823297, 0.666596, 0.25321
55523.916481922009552, -0.00397915, -0.0018462, -0.00149204, 0.0823387, 0.666667, 0.253423
55523.949798289009777, -0.003975, -0.00184942, -0.00148943, 0.0821401, 0.666412, 0.25341
55523.983114594004292, -0.00398787, -0.00184778, -0.00149059, 0.0819537, 0.667116, 0.254503
55524.016430955009128, -0.0040046, -0.00184647, -0.00149146, 0.0816913, 0.667888, 0.255967
55524.049748032004572, -0.00400197, -0.00184673, -0.00149011, 0.0816349, 0.668169, 0.255703
55524.083063622005284, -0.00400406, -0.00184719, -0.00148871, 0.0814521, 0.668462, 0.256172
55524.116379955004959, -0.00399575, -0.00185035, -0.00148697, 0.0812612, 0.668422, 0.256173
55524.149696289008716, -0.00399972, -0.00185004, -0.00148914, 0.0811657, 0.668902, 0.256836
55524.183162594003079, -0.00400064, -0.00185382, -0.00148918, 0.0809889, 0.66766, 0.257536
55524.216478955007915, -0.00399635, -0.0018606, -0.00148886, 0.0806295, 0.665894, 0.258687
55524.249795289004396, -0.00399971, -0.00186245, -0.00148968, 0.0805196, 0.665252, 0.259206
55524.283112046003225, -0.00401573, -0.00186548, -0.00149278, 0.0803305, 0.664024, 0.260558
55524.316427955003746, -0.00403805, -0.00186936, -0.00149831, 0.0800329, 0.662697, 0.262959
55524.349744846003887, -0.00405629, -0.00187302, -0.0015029, 0.079801, 0.661242, 0.264632
55524.383060589003435, -0.00407375, -0.00187663, -0.00150691, 0.0796346, 0.659723, 0.265988
55524.41637692200311, -0.00408023, -0.00188365, -0.00151278, 0.0793855, 0.657243, 0.267965
55524.449693870003102, -0.00409473, -0.00188855, -0.0015206, 0.0792126, 0.655395, 0.269979
55524.48300962200301, -0.00411004, -0.0018934, -0.00152747, 0.0791443, 0.652489, 0.271062
55524.516475922006066, -0.00412424, -0.00189333, -0.00153354, 0.079221, 0.651949, 0.271901
55524.549792289006291, -0.00413018, -0.00189274, -0.00153591, 0.0793071, 0.6517, 0.271962
55524.583108622005966, -0.00413989, -0.00189621, -0.00153947, 0.0792208, 0.649703, 0.27243
55524.616424955005641, -0.00416076, -0.00190277, -0.00154822, 0.0791485, 0.645661, 0.273237
55524.649741260007431, -0.00417222, -0.00190311, -0.00155182, 0.0792092, 0.645319, 0.273495
55524.683057560003363, -0.00416877, -0.00190543, -0.00155203, 0.0791492, 0.643632, 0.273317
55524.716373955008748, -0.00417512, -0.00191001, -0.00155489, 0.0789382, 0.641151, 0.273915
55524.74969028900523, -0.00417908, -0.00191228, -0.00155692, 0.0788772, 0.639666, 0.274065
55524.783006593002938, -0.00419004, -0.00191483, -0.00156195, 0.0789255, 0.636973, 0.273751
55524.81632295500458, -0.0042076, -0.00192129, -0.00156999, 0.0787381, 0.632316, 0.274322
55524.849639289008337, -0.0042102, -0.00192235, -0.00157103, 0.0786702, 0.63181, 0.274642
55524.883105622007861, -0.00420714, -0.00192323, -0.00157003, 0.0785635, 0.630758, 0.274629
55524.916421922003792, -0.00421276, -0.00192349, -0.00157166, 0.0786162, 0.630017, 0.274335
55524.949738289004017, -0.00421794, -0.00192631, -0.00157442, 0.078527, 0.627052, 0.274188
55524.983054589007224, -0.00421998, -0.00192868, -0.00157622, 0.0782966, 0.625357, 0.274885
55525.016370955003367, -0.00423398, -0.00193152, -0.00157978, 0.0782428, 0.622478, 0.274852
55525.049687289007124, -0.00424062, -0.00193438, -0.0015826, 0.078009, 0.61917, 0.275249
55525.083003589003056, -0.00423799, -0.00193534, -0.00158257, 0.077954, 0.618092, 0.275168
55525.116319955006475, -0.00423346, -0.00193729, -0.00158247, 0.077735, 0.615619, 0.275342
55525.149636260008265, -0.00423197, -0.00193775, -0.00158238, 0.0776447, 0.614785, 0.275441
55525.18295259300794, -0.00423096, -0.00193774, -0.00158202, 0.0776145, 0.614654, 0.27549
55525.21641892700427, -0.00423617, -0.00193848, -0.00158352, 0.0775437, 0.614037, 0.275896
55525.249736031008069, -0.00423534, -0.00193987, -0.00158255, 0.077412, 0.612159, 0.275876
55525.28305159300362, -0.00423605, -0.0019414, -0.00158169, 0.0773656, 0.610746, 0.275703
55525.316367927007377, -0.00423806, -0.00194176, -0.00158131, 0.0772092, 0.609772, 0.276117
55525.349684712004091, -0.00423917, -0.0019414, -0.0015815, 0.0771197, 0.60963, 0.276397
55525.383000593006727, -0.00423956, -0.00193901, -0.0015802, 0.0769195, 0.609735, 0.276777
55525.416316955008369, -0.00424287, -0.00193802, -0.00157979, 0.0767506, 0.609384, 0.277206
55525.449633260002884, -0.00424413, -0.00193571, -0.00157833, 0.0765277, 0.609469, 0.277585
55525.482949589008058, -0.00424424, -0.00193672, -0.00157549, 0.0762178, 0.607593, 0.277934
55525.516265955004201, -0.00424663, -0.00193534, -0.00157519, 0.0761204, 0.607878, 0.278216
55525.549582260005991, -0.00424532, -0.00193249, -0.00157114, 0.075913, 0.607981, 0.277876
55525.583048622007482, -0.00425533, -0.00192965, -0.00157045, 0.0756858, 0.608362, 0.278428
55525.616364955007157, -0.00426216, -0.00192781, -0.00157381, 0.075698, 0.609142, 0.278836
55525.649681260008947, -0.00427208, -0.00193215, -0.00158196, 0.07585, 0.608397, 0.280674
55525.682997593008622, -0.00427441, -0.00193663, -0.00158575, 0.0760166, 0.607343, 0.28161
55525.71631392200652, -0.00427852, -0.00193667, -0.00158916, 0.0761426, 0.607545, 0.281972
55525.749630289006745, -0.00428792, -0.00193393, -0.00159267, 0.0763185, 0.608593, 0.282067
55525.782946622006421, -0.00429417, -0.00193209, -0.00159575, 0.0764694, 0.609321, 0.282227
55525.816262955006096, -0.00430428, -0.00192907, -0.0015987, 0.0765995, 0.610433, 0.282282
55525.849579289009853, -0.00430055, -0.00192888, -0.00160056, 0.0768553, 0.610381, 0.281461
55525.882895593007561, -0.00430369, -0.00192679, -0.00160284, 0.0770111, 0.610979, 0.281074
55525.916361955009052, -0.00431204, -0.00192442, -0.00160531, 0.0770986, 0.611666, 0.281041
55525.949678255004983, -0.0043011, -0.00192499, -0.00160595, 0.0774196, 0.611135, 0.279559
55525.98299458900874, -0.00429551, -0.00192302, -0.00160715, 0.0777869, 0.61138, 0.27789
55526.016310955004883, -0.00429528, -0.00192176, -0.00160644, 0.077799, 0.611924, 0.277601
55526.049627288004558, -0.00429706, -0.00192077, -0.0016054, 0.0776627, 0.612584, 0.277934
55526.082943622008315, -0.00429583, -0.00191972, -0.0016044, 0.0776286, 0.613156, 0.277849
55526.116259922004247, -0.00430001, -0.00192057, -0.00160332, 0.0773291, 0.613663, 0.279048
55526.149576260009781, -0.00429222, -0.00192061, -0.00160023, 0.0771589, 0.614068, 0.278912
55526.182892622004147, -0.0042954, -0.00192045, -0.00160029, 0.0770753, 0.614308, 0.279257
55526.216208955003822, -0.00431074, -0.00192057, -0.00160318, 0.0769632, 0.614495, 0.280539
55526.249525288003497, -0.00431831, -0.0019222, -0.00160554, 0.0766936, 0.614396, 0.281791
55526.282991622007103, -0.00433788, -0.00192522, -0.00161047, 0.0763708, 0.6141, 0.284151
55526.316307955006778, -0.00433725, -0.00192933, -0.00161257, 0.0761282, 0.612835, 0.284998
55526.349624255009985, -0.00434486, -0.0019302, -0.00161535, 0.0760642, 0.612603, 0.285654
55526.382940593008243, -0.00435255, -0.00193232, -0.0016181, 0.075899, 0.612268, 0.28659
55526.416256955009885, -0.00435857, -0.00193569, -0.00162243, 0.0757461, 0.611585, 0.287613
55526.44957328800956, -0.00436206, -0.00193831, -0.00162752, 0.0756887, 0.610518, 0.288199
55526.482889593004074, -0.00436476, -0.00193907, -0.00162872, 0.0756648, 0.610308, 0.288428
55526.516205927007832, -0.00438392, -0.00194552, -0.00163815, 0.0754209, 0.608925, 0.290212
55526.549522465007612, -0.00438731, -0.00195019, -0.00164658, 0.0753393, 0.607019, 0.290944
55526.582838588008599, -0.00438502, -0.00195402, -0.00165085, 0.0751777, 0.60515, 0.291174
55526.616304955008673, -0.00437968, -0.00195826, -0.00165482, 0.0750084, 0.603124, 0.291316
55526.649621288008348, -0.00438264, -0.00196082, -0.00166006, 0.0749932, 0.60223, 0.291821
55526.682937593002862, -0.00438149, -0.00196256, -0.00166567, 0.0750104, 0.601162, 0.292079
55526.716253922008036, -0.00438038, -0.00196459, -0.00167149, 0.0750316, 0.60015, 0.292445
55526.749570288004179, -0.00437562, -0.00196632, -0.00167587, 0.0750385, 0.599109, 0.292645
55526.782886588007386, -0.00437673, -0.00196747, -0.00168122, 0.0750829, 0.598475, 0.292994
55526.816202922003868, -0.00437969, -0.00196909, -0.00168875, 0.0751338, 0.597569, 0.29349
55526.849519260009401, -0.00437292, -0.00196917, -0.00169041, 0.0751098, 0.596352, 0.29309
55526.882835565003916, -0.00437275, -0.00197012, -0.00169153, 0.0750714, 0.595957, 0.293198
55526.916151898003591, -0.00437562, -0.00197062, -0.0017062, 0.0752528, 0.594537, 0.293863
55526.949618288002966, -0.00437703, -0.0019699, -0.00170601, 0.0752715, 0.594508, 0.293683
55526.982934622006724, -0.00437938, -0.00196857, -0.00171189, 0.0753836, 0.593914, 0.293684
55527.016250955006399, -0.00438085, -0.00196876, -0.00171226, 0.0753854, 0.593984, 0.293784
55527.049567255009606, -0.00437829, -0.00196861, -0.00171117, 0.075357, 0.593559, 0.293516
55527.082883622009831, -0.00437418, -0.00196912, -0.00170554, 0.0752726, 0.593848, 0.293236
55527.116199926007539, -0.00437545, -0.00196722, -0.00170587, 0.0753841, 0.594269, 0.292983
55527.149516231009329, -0.00437871, -0.00196588, -0.00170775, 0.0754416, 0.593982, 0.292758
55527.182832588005112, -0.00438083, -0.001966, -0.0017075, 0.0754596, 0.594499, 0.292865
55527.21614896000392, -0.00438633, -0.00196624, -0.00171169, 0.0755181, 0.594774, 0.29336
55527.249465288005013, -0.00438633, -0.00196624, -0.00171169, 0.0755181, 0.594774, 0.29336
55527.28278162200877, -0.00441025, -0.00196042, -0.00171747, 0.0757839, 0.593979, 0.292261
55527.316247955008294, -0.00441964, -0.00195654, -0.00171721, 0.075906, 0.593214, 0.291228
55527.349564255004225, -0.00441762, -0.00195724, -0.0017164, 0.0758567, 0.593129, 0.291373
55527.382881541008828, -0.00442069, -0.00195665, -0.00171843, 0.0758725, 0.592111, 0.291253
55527.416196922007657, -0.00441649, -0.00195728, -0.00171944, 0.0758512, 0.59225, 0.291585
55527.4495132880038, -0.00441784, -0.00195828, -0.0017191, 0.0756951, 0.591163, 0.291965
55527.482829564003623, -0.00441157, -0.00195923, -0.00171585, 0.0755661, 0.591273, 0.29208
55527.516145955007232, -0.0044036, -0.00196068, -0.00171231, 0.0753748, 0.591267, 0.292352
55527.549462288006907, -0.0044036, -0.00196068, -0.00171231, 0.0753748, 0.591267, 0.292352
55527.582778617004806, -0.00439344, -0.00196172, -0.0017085, 0.0752229, 0.591638, 0.292308
55527.616094955003064, -0.00438604, -0.00196316, -0.0017058, 0.0749562, 0.591448, 0.292913
55527.649561260004702, -0.00436187, -0.00196484, -0.0017028, 0.074652, 0.592711, 0.29354
55527.682877593004378, -0.00435384, -0.00196416, -0.00170174, 0.0745913, 0.593305, 0.293608
55527.71619395500602, -0.00434643, -0.00196428, -0.00170147, 0.0744161, 0.593687, 0.294153
55527.749510255009227, -0.00433807, -0.0019636, -0.00170288, 0.0743207, 0.594488, 0.294589
55527.782826598006068, -0.00433005, -0.00196304, -0.00170061, 0.0742194, 0.595093, 0.294365
55527.816142922005383, -0.00432515, -0.00196246, -0.00169716, 0.0739993, 0.595659, 0.29426
55527.849459288008802, -0.00433174, -0.00196298, -0.00169468, 0.0737984, 0.595298, 0.294465
55527.882775593003316, -0.00431445, -0.00196194, -0.00169516, 0.0737562, 0.596471, 0.294387
55527.916091926002991, -0.00430451, -0.0019593, -0.00169608, 0.0738415, 0.597701, 0.2938
55527.949408288004634, -0.00430603, -0.00195714, -0.00169811, 0.0737767, 0.598464, 0.294145
55527.982724864006741, -0.00431192, -0.00195562, -0.00170275, 0.0738279, 0.598793, 0.294784
55528.016190922004171, -0.00430735, -0.00195381, -0.00170643, 0.0740271, 0.599131, 0.294494
55528.04950728800759, -0.00430458, -0.00195204, -0.00170916, 0.0742038, 0.599424, 0.294139
55528.082823622004071, -0.00430483, -0.00195112, -0.00171147, 0.0743394, 0.599545, 0.293932
55528.116139926009055, -0.00429603, -0.00195078, -0.00171437, 0.0744949, 0.59987, 0.293598
55528.149456260005536, -0.00429367, -0.00195031, -0.00171621, 0.074584, 0.600091, 0.293403
55528.182772588006628, -0.00429151, -0.00194709, -0.00172018, 0.0748226, 0.600666, 0.292932
55528.216088922003109, -0.0042788, -0.001945, -0.00172234, 0.0750432, 0.601229, 0.29197
55528.249405255010061, -0.00426584, -0.00194273, -0.00172467, 0.075242, 0.601988, 0.291077
55528.282721621006203, -0.00426207, -0.00194003, -0.00172757, 0.0754487, 0.602532, 0.290426
55528.316037921009411, -0.00424758, -0.00193573, -0.00172993, 0.075552, 0.603908, 0.289908
55528.349508650004282, -0.00424261, -0.00193263, -0.00173163, 0.0755443, 0.604966, 0.290096
55528.382820593003999, -0.00423767, -0.00193047, -0.00173311, 0.0756388, 0.605591, 0.289806
55528.416136955005641, -0.00423321, -0.00193028, -0.00173429, 0.0757017, 0.605718, 0.289803
55528.449453231005464, -0.00423567, -0.00192942, -0.00173569, 0.0755184, 0.606731, 0.291092
55528.482769621004991, -0.00422911, -0.00192542, -0.00173556, 0.0753405, 0.60843, 0.292112
55528.516085955008748, -0.00422742, -0.00192299, -0.00173735, 0.0753918, 0.609283, 0.292428
55528.549402855009248, -0.00423384, -0.00192291, -0.00173807, 0.0753091, 0.609612, 0.293068
55528.582718588004354, -0.00423139, -0.00192256, -0.00173747, 0.0752896, 0.609845, 0.293045
55528.616034955004579, -0.00424153, -0.00192318, -0.00173981, 0.0751173, 0.610426, 0.294512
55528.649351288004254, -0.00423542, -0.00192374, -0.00173728, 0.0749189, 0.610898, 0.294768
55528.68266762100393, -0.00423665, -0.00192631, -0.00173749, 0.074712, 0.610698, 0.29528
55528.716133921006985, -0.00423665, -0.00192631, -0.00173749, 0.074712, 0.610698, 0.29528
55528.749450260009326, -0.00424009, -0.00192933, -0.00173866, 0.0745182, 0.610201, 0.295683
55528.782766621006886, -0.00424776, -0.0019309, -0.00174081, 0.0744101, 0.610025, 0.296183
55528.816082917008316, -0.00424776, -0.0019309, -0.00174081, 0.0744101, 0.610025, 0.296183
55528.849399255006574, -0.00425114, -0.00193327, -0.00174353, 0.074359, 0.609467, 0.296622
55528.882715593004832, -0.00427554, -0.00193839, -0.00175073, 0.0741224, 0.608782, 0.298128
55528.916031955006474, -0.0042868, -0.00194062, -0.00175445, 0.0740486, 0.608492, 0.298837
55528.949348259004182, -0.00430282, -0.00194885, -0.00176513, 0.0737714, 0.606617, 0.30005
55528.982664621005824, -0.00431658, -0.00195673, -0.00177403, 0.0734734, 0.605218, 0.301126
55529.01598169200588, -0.00432133, -0.00195691, -0.00177349, 0.0733863, 0.605557, 0.301238
55529.049451086008048, -0.00433781, -0.00195934, -0.00177889, 0.0733337, 0.605268, 0.302071
55529.082770471010008, -0.00434697, -0.00196179, -0.00178185, 0.0732286, 0.605078, 0.302539
55529.11608980200981, -0.00435262, -0.00196287, -0.00178494, 0.0732129, 0.604633, 0.302719
55529.149409144003585, -0.00436937, -0.00196682, -0.00179704, 0.0732428, 0.603055, 0.3035
55529.182728537009098, -0.00436682, -0.0019674, -0.00179956, 0.0732689, 0.602634, 0.303586
55529.216047931004141, -0.00437688, -0.0019687, -0.00180716, 0.0734309, 0.601972, 0.304289
55529.249367296004493, -0.00438651, -0.00197239, -0.00181081, 0.0732309, 0.601716, 0.304663
55529.282686661004846, -0.00439688, -0.00197556, -0.00181596, 0.073111, 0.601229, 0.305029
55529.316006026005198, -0.004404, -0.00197456, -0.00181736, 0.0733764, 0.601457, 0.30546
55529.349325392009632, -0.00441254, -0.00197544, -0.00181901, 0.073419, 0.601514, 0.305759
55529.382644728008017, -0.0044211, -0.00197544, -0.0018248, 0.0734549, 0.600894, 0.305813
55529.416114074003417, -0.00442217, -0.00197563, -0.00182325, 0.0734703, 0.601118, 0.305898
55529.44943350100948, -0.00442544, -0.00197622, -0.00182524, 0.0734492, 0.600998, 0.306032
55529.482752837007865, -0.00443453, -0.00197517, -0.00183091, 0.0734206, 0.600303, 0.305901
55529.516072231002909, -0.00444495, -0.00197543, -0.0018343, 0.0734601, 0.600063, 0.306046
55529.54939156700857, -0.0044432, -0.00197248, -0.00183862, 0.0734195, 0.599343, 0.305603
55529.582710932008922, -0.0044521, -0.00197029, -0.00184556, 0.0734178, 0.598459, 0.305338
55529.616030293007498, -0.00445504, -0.00197032, -0.00184267, 0.0735032, 0.598797, 0.305349
55529.649349691004318, -0.00445855, -0.00196942, -0.00184028, 0.0736226, 0.598951, 0.305269
55529.682669028006785, -0.00445861, -0.00196854, -0.00184185, 0.073557, 0.598846, 0.305228
55529.715988421005022, -0.00446156, -0.00196718, -0.00184773, 0.0734552, 0.598353, 0.305202
55529.749457748002897, -0.00446657, -0.00196862, -0.00185185, 0.0733272, 0.598495, 0.305518
55529.782777137006633, -0.00447497, -0.00196823, -0.00185682, 0.0733089, 0.598165, 0.305748
55529.81609653000487, -0.00447576, -0.00196767, -0.00185356, 0.0733143, 0.598395, 0.305584
55529.849415896009305, -0.00447557, -0.00196768, -0.00185421, 0.0733008, 0.59842, 0.30561
55529.882735318009509, -0.00447502, -0.00196635, -0.00185606, 0.0732719, 0.598309, 0.305627
55529.916054626010009, -0.00448735, -0.00196132, -0.00186109, 0.0731678, 0.598443, 0.305545
55529.949373962008394, -0.00448445, -0.00196106, -0.00186421, 0.0730847, 0.598823, 0.305671
55529.98269332300697, -0.00448418, -0.00195775, -0.00186639, 0.0730059, 0.598861, 0.305518
55530.016011944004276, -0.00448794, -0.00195484, -0.00186971, 0.0729228, 0.598979, 0.305483
55530.049328288005199, -0.00449306, -0.00195377, -0.00187071, 0.0729165, 0.598656, 0.305525
55530.082644621004874, -0.00449787, -0.00195616, -0.00186891, 0.0729953, 0.598278, 0.305717
55530.116110893010045, -0.0045099, -0.00195764, -0.00187027, 0.0730336, 0.598147, 0.306052
55530.149427259006188, -0.00451861, -0.00195517, -0.00187351, 0.0729655, 0.598371, 0.306082
55530.18274362100783, -0.0045255, -0.00195189, -0.00187678, 0.0728769, 0.598542, 0.306071
55530.216059921003762, -0.00453208, -0.00194877, -0.00187808, 0.0728179, 0.598871, 0.30579
55530.249376288003987, -0.00453528, -0.001948, -0.00187888, 0.072802, 0.599062, 0.305726
55530.282692621003662, -0.00453739, -0.0019479, -0.0018796, 0.0728043, 0.599265, 0.305712
55530.316008921006869, -0.00452611, -0.00194982, -0.00187668, 0.0728896, 0.599107, 0.305709
55530.34932525500335, -0.00452386, -0.00195089, -0.00187769, 0.0729189, 0.599093, 0.305999
55530.382641621006769, -0.00451855, -0.00195239, -0.0018772, 0.0729698, 0.599056, 0.306102
55530.415957926008559, -0.00451238, -0.00195379, -0.00187614, 0.0730587, 0.599128, 0.306021
55530.44942428801005, -0.00450193, -0.00195538, -0.0018734, 0.0732101, 0.599264, 0.305766
55530.482740926003316, -0.00449693, -0.0019558, -0.00187222, 0.0732596, 0.599132, 0.30576
55530.516056921005656, -0.0044854, -0.00195674, -0.00187061, 0.0733608, 0.598647, 0.305839
55530.54937323100603, -0.00448699, -0.00195637, -0.00186701, 0.0734978, 0.599269, 0.305085
55530.582689593007672, -0.00450342, -0.0019554, -0.00186453, 0.0735657, 0.600368, 0.3042
55530.616005921008764, -0.00451171, -0.00195469, -0.00186284, 0.0735869, 0.600765, 0.303739
55530.649322288008989, -0.00452819, -0.00195344, -0.00185875, 0.0736344, 0.601779, 0.302736
55530.682638621008664, -0.00453499, -0.00195308, -0.00185543, 0.0736327, 0.602228, 0.302074
55530.715954954008339, -0.00453179, -0.0019532, -0.00185353, 0.0736268, 0.60217, 0.301813
55530.749271226006385, -0.00452272, -0.00195277, -0.0018514, 0.0736579, 0.601891, 0.301697
55530.782737621004344, -0.00453124, -0.00195403, -0.00185161, 0.0736225, 0.602242, 0.301604
55530.816053954004019, -0.00454993, -0.00195698, -0.00185562, 0.0735723, 0.602865, 0.302009
55530.849370288007776, -0.00455661, -0.00195811, -0.00185787, 0.0734871, 0.602966, 0.302064
55530.882686593009566, -0.00455395, -0.00195835, -0.00185813, 0.073487, 0.602992, 0.302102
55530.916002954007126, -0.0045583, -0.00195858, -0.00185773, 0.0734824, 0.603102, 0.30206
55530.949319821003883, -0.0045583, -0.00195858, -0.00185773, 0.0734824, 0.603102, 0.30206
55530.982635593005398, -0.00454707, -0.00196143, -0.0018625, 0.0734165, 0.602961, 0.302418
55531.015951926005073, -0.00453506, -0.00196316, -0.00186529, 0.0733472, 0.602684, 0.302553
55531.049268288006715, -0.00448694, -0.00196381, -0.00187092, 0.0732635, 0.601815, 0.302873
55531.082584593008505, -0.00446399, -0.00196683, -0.00187797, 0.073217, 0.601395, 0.303412
55531.115900954006065, -0.0044371, -0.00196846, -0.00188426, 0.0731786, 0.600773, 0.303825
55531.149367254009121, -0.00441324, -0.00197413, -0.00189349, 0.0730479, 0.600318, 0.30432
55531.182683621009346, -0.00440316, -0.00197429, -0.00189507, 0.0730442, 0.600115, 0.304417
55531.215999954009021, -0.0043818, -0.00197481, -0.00189906, 0.0730398, 0.599686, 0.304656
55531.249316259003535, -0.00435017, -0.00197727, -0.00190742, 0.0731027, 0.599186, 0.305373
55531.28263259200321, -0.00433164, -0.00197787, -0.00191182, 0.0731116, 0.598814, 0.30565
55531.315948897005001, -0.00431836, -0.00197839, -0.00191465, 0.0730879, 0.598539, 0.305751
55531.349268550009583, -0.00429593, -0.00197895, -0.00191922, 0.0730449, 0.598081, 0.305886
55531.382581588004541, -0.00429327, -0.00198069, -0.00192072, 0.0730882, 0.598153, 0.306112
55531.41589795400796, -0.00429244, -0.00198175, -0.00192128, 0.073116, 0.598225, 0.306233
55531.449214288004441, -0.00428929, -0.00198015, -0.00192291, 0.0731358, 0.59803, 0.306243
55531.482680621003965, -0.00427258, -0.00197902, -0.00192868, 0.0731761, 0.597552, 0.306494
55531.515996926005755, -0.0042738, -0.00198153, -0.00192769, 0.0732005, 0.597806, 0.306625
55531.549313492003421, -0.00426786, -0.00197936, -0.00192962, 0.0732034, 0.597511, 0.3066
55531.582629592005105, -0.00426459, -0.00197669, -0.00193053, 0.0732449, 0.597288, 0.306576
55531.615945954006747, -0.00424282, -0.00197042, -0.00193805, 0.0733433, 0.596412, 0.306761
55531.649263573010103, -0.00423008, -0.00196989, -0.00194224, 0.0734803, 0.596251, 0.307111
55531.682578588006436, -0.00423042, -0.00196866, -0.00194256, 0.0735254, 0.596182, 0.307127
55531.715894926004694, -0.00420619, -0.00193918, -0.00196009, 0.0740706, 0.593392, 0.307303
55531.749211226007901, -0.0041991, -0.00193848, -0.00196378, 0.074049, 0.593117, 0.307407
55531.782527592004044, -0.00419746, -0.00194354, -0.00196465, 0.0739917, 0.593352, 0.307575
55531.815843954005686, -0.00422682, -0.00195155, -0.00196288, 0.0739829, 0.594209, 0.30777
55531.849310269004491, -0.00428814, -0.00195889, -0.00195897, 0.0742415, 0.595787, 0.308097
55531.882626621008967, -0.00429144, -0.00195727, -0.00195855, 0.0741589, 0.595588, 0.307884
55531.915942911007733, -0.00427947, -0.00195824, -0.00196311, 0.0740668, 0.595326, 0.308025
55531.949259297005483, -0.0042908, -0.00195673, -0.00196404, 0.0739495, 0.595241, 0.307863
55531.982575592010107, -0.00428427, -0.00195714, -0.00196808, 0.0734972, 0.595183, 0.307583
55532.015891954004474, -0.00426853, -0.00196302, -0.00197164, 0.0734695, 0.595696, 0.307878
55532.049208288008231, -0.00425772, -0.00196438, -0.00197411, 0.0732817, 0.596016, 0.307863
55532.082524588004162, -0.00425403, -0.00196313, -0.00197388, 0.0731248, 0.595953, 0.307645
55532.115840954007581, -0.00423482, -0.00196554, -0.00197783, 0.0730637, 0.596297, 0.307888
55532.149157230007404, -0.00422001, -0.00196826, -0.00198019, 0.073097, 0.596735, 0.308048
55532.182623592008895, -0.00422259, -0.00196719, -0.00198024, 0.0730442, 0.596696, 0.307973
55532.215939926005376, -0.0042355, -0.00196561, -0.00197931, 0.0730359, 0.59644, 0.307937
55532.249256288007018, -0.00423365, -0.00196627, -0.00198089, 0.0730956, 0.596475, 0.308109
55532.282572592004726, -0.00423688, -0.00196589, -0.00198313, 0.073134, 0.596347, 0.308377
55532.315888954006368, -0.00423124, -0.00196712, -0.00198407, 0.0731903, 0.596487, 0.308444
55532.349205254009576, -0.00422469, -0.00196761, -0.00198615, 0.0732081, 0.596583, 0.308687
55532.382521621009801, -0.00421052, -0.00196947, -0.00198758, 0.0732815, 0.596713, 0.308949
55532.415837954009476, -0.00419602, -0.00197047, -0.00198935, 0.0733351, 0.597763, 0.308301
55532.449154254005407, -0.0041906, -0.00197086, -0.00199009, 0.0733518, 0.597898, 0.308309
55532.482470588009164, -0.0041889, -0.00197102, -0.0019905, 0.0733634, 0.5978, 0.308434
55532.515786954005307, -0.0041889, -0.00197102, -0.0019905, 0.0733634, 0.5978, 0.308434
55532.549253254008363, -0.00417027, -0.0019731, -0.00199205, 0.0734824, 0.598282, 0.308326
55532.582569621008588, -0.00415813, -0.00197438, -0.00199469, 0.0736178, 0.598886, 0.308158
55532.615885954008263, -0.00414703, -0.00197568, -0.0019971, 0.0737714, 0.599688, 0.307745
55532.649202288004744, -0.00414375, -0.00197562, -0.0019973, 0.0737732, 0.599745, 0.307827
55532.682518621004419, -0.00412902, -0.00197681, -0.00199906, 0.0739561, 0.60034, 0.307707
55532.71583492600621, -0.00413856, -0.00197743, -0.00199981, 0.0741628, 0.601187, 0.306798
55532.74915128700377, -0.00413294, -0.00197752, -0.00200179, 0.0743196, 0.601667, 0.306629
55532.782467621007527, -0.00413811, -0.00197895, -0.00200158, 0.0745644, 0.602447, 0.305794
55532.815783954007202, -0.00414698, -0.00197906, -0.00200275, 0.07465, 0.603314, 0.30509
55532.849100287006877, -0.00414713, -0.00197875, -0.00200442, 0.0748155, 0.603969, 0.304907
55532.882566592008516, -0.00416513, -0.0019801, -0.00200218, 0.0748749, 0.60449, 0.303919
55532.915882954002882, -0.00411591, -0.00198329, -0.00200715, 0.0747368, 0.60537, 0.304619
55532.949199254006089, -0.00411357, -0.00198414, -0.00200677, 0.0747603, 0.605684, 0.304392
55532.982515621006314, -0.00411592, -0.00198427, -0.00200894, 0.0746594, 0.606441, 0.304066
55533.015831954005989, -0.00411103, -0.00198548, -0.00200995, 0.0744965, 0.606542, 0.304024
55533.049148287005664, -0.00409435, -0.00198605, -0.00201296, 0.074405, 0.606745, 0.304359
55533.082464592007454, -0.00407103, -0.00198691, -0.00201716, 0.0742861, 0.606624, 0.305028
55533.115780921005353, -0.00404831, -0.00198743, -0.0020203, 0.074255, 0.606596, 0.305686
55533.149097287008772, -0.00399975, -0.00199089, -0.00202779, 0.0741045, 0.607326, 0.306713
55533.182413621005253, -0.00397075, -0.00199225, -0.00203397, 0.0740245, 0.607551, 0.307457
55533.21572992100846, -0.00395878, -0.00199321, -0.00203651, 0.073963, 0.607222, 0.307884
55533.249196287004452, -0.00395691, -0.00199288, -0.00203656, 0.0739922, 0.607165, 0.307949
55533.282512621008209, -0.00395057, -0.00199384, -0.00203807, 0.0739247, 0.607112, 0.30809
55533.315828954007884, -0.00394048, -0.00199203, -0.00203937, 0.0740728, 0.606762, 0.308537
55533.349145259009674, -0.00392576, -0.00199316, -0.00204172, 0.0740704, 0.606795, 0.308886
55533.38246162100404, -0.00392563, -0.00199269, -0.00204221, 0.0740999, 0.606862, 0.308971
55533.415778187008982, -0.0039203, -0.00199449, -0.00204532, 0.074001, 0.606789, 0.309192
55533.449094254006923, -0.00392048, -0.00199475, -0.00204689, 0.073959, 0.606563, 0.309276
55533.482410621007148, -0.00391515, -0.00199532, -0.00204831, 0.0739814, 0.606601, 0.309444
55533.515726921003079, -0.00391227, -0.00199569, -0.00204954, 0.0739711, 0.606554, 0.309552
55533.54904325401003, -0.00390611, -0.00199491, -0.00205606, 0.0740615, 0.606208, 0.310013
55533.582509587009554, -0.00390035, -0.00199456, -0.00205848, 0.0741326, 0.606148, 0.310227
55533.615825954009779, -0.0038768, -0.00199638, -0.00206341, 0.0742205, 0.606289, 0.310722
55533.649142259004293, -0.00386248, -0.00199737, -0.00206652, 0.0743132, 0.60639, 0.311061
55533.682458592003968, -0.00385381, -0.00199581, -0.00207244, 0.0743897, 0.605971, 0.31138
55533.71577495400561, -0.00384411, -0.00199592, -0.00207611, 0.0745026, 0.606086, 0.311667
55533.7490912590074, -0.00384909, -0.001994, -0.00207532, 0.0746092, 0.606142, 0.311603
55533.782407630009402, -0.00383246, -0.00199224, -0.00208177, 0.0748099, 0.605856, 0.311964
55533.815723921004974, -0.00383808, -0.00199088, -0.00208592, 0.0748554, 0.605584, 0.31207
55533.849040287008393, -0.00384508, -0.00198882, -0.00208747, 0.07492, 0.605406, 0.312042
55533.882356992005953, -0.00384169, -0.00199097, -0.00209212, 0.0750256, 0.605534, 0.312412
55533.915822925009707, -0.00385119, -0.00198866, -0.00209514, 0.0750409, 0.605205, 0.312418
55533.949139287004073, -0.00386535, -0.00198376, -0.00209708, 0.0751144, 0.604848, 0.312279
55533.982456387006096, -0.00387024, -0.00197884, -0.00210404, 0.0751857, 0.604192, 0.312345
55534.015771954007505, -0.00386954, -0.00197683, -0.00210872, 0.0750961, 0.603588, 0.31236
55534.04908828700718, -0.00390559, -0.0019632, -0.00211366, 0.0750853, 0.602077, 0.31179
55534.08240459200897, -0.00392485, -0.0019534, -0.00212373, 0.0749229, 0.600414, 0.31156
55534.115720925008645, -0.00393385, -0.00195148, -0.00212711, 0.0747773, 0.599945, 0.311495
55534.149037287003011, -0.00394006, -0.00195144, -0.00212721, 0.0745203, 0.599593, 0.311311
55534.182353592004802, -0.00392453, -0.00195234, -0.00213323, 0.0743913, 0.599282, 0.311553
55534.215669954006444, -0.00393279, -0.00194825, -0.00213889, 0.0742657, 0.598532, 0.311557
55534.248986254009651, -0.00393904, -0.00194613, -0.0021423, 0.0741574, 0.598166, 0.311559
55534.28245264900761, -0.00392714, -0.00194765, -0.0021447, 0.0739958, 0.598232, 0.311618
55534.315768925007433, -0.0039194, -0.0019474, -0.00214743, 0.0738787, 0.598092, 0.311693
55534.349085259003914, -0.00391442, -0.00194849, -0.00214823, 0.0738616, 0.598273, 0.311757
55534.382401621005556, -0.00392077, -0.00194764, -0.00214767, 0.0738016, 0.598343, 0.311622
55534.415717954005231, -0.00392769, -0.0019479, -0.00214598, 0.0737289, 0.598641, 0.311383
55534.449034259007021, -0.00391534, -0.00194912, -0.00214904, 0.0736598, 0.598927, 0.311482
55534.482350587008114, -0.00389894, -0.00195079, -0.00215358, 0.0736953, 0.599046, 0.311834
55534.515666954008339, -0.00390037, -0.00195021, -0.00215601, 0.0736654, 0.598873, 0.312061
55534.548983287008014, -0.00389538, -0.00195056, -0.00215848, 0.0736781, 0.598911, 0.312259
55534.582299621004495, -0.00389357, -0.00195037, -0.00216108, 0.073671, 0.598905, 0.312446
55534.615765959009877, -0.00389093, -0.00194992, -0.00216372, 0.0736434, 0.598892, 0.312658
55534.64908255400951, -0.0038849, -0.00195012, -0.00216459, 0.0736502, 0.598985, 0.312721
55534.682398592005484, -0.00386871, -0.00195071, -0.00216624, 0.0736863, 0.598764, 0.313223
55534.715714925005159, -0.00386002, -0.00195118, -0.00216577, 0.0737764, 0.598631, 0.313354
55534.749031259008916, -0.00385273, -0.00195144, -0.00216605, 0.073843, 0.598658, 0.313394
55534.782347621003282, -0.0038463, -0.00195158, -0.0021658, 0.0739432, 0.598712, 0.313356
55534.81566392100649, -0.00385076, -0.00195131, -0.00216483, 0.0740338, 0.598899, 0.312997
55534.848980287009908, -0.00384086, -0.00195139, -0.00216656, 0.0741152, 0.59909, 0.313065
55534.882296592004423, -0.00384227, -0.00195037, -0.00216672, 0.0742675, 0.599046, 0.31296
55534.915612925004098, -0.00384403, -0.00195042, -0.00216664, 0.0743508, 0.59936, 0.312577
55534.948929254009272, -0.00384313, -0.00195025, -0.00216747, 0.0744279, 0.599614, 0.312377
55534.982395620005263, -0.00384821, -0.00194943, -0.00216759, 0.0745582, 0.599812, 0.31204
55535.015711925007054, -0.00385077, -0.00194915, -0.0021679, 0.0746356, 0.599998, 0.311789
55535.049028287008696, -0.00385936, -0.00194867, -0.00216747, 0.0747878, 0.60053, 0.311134
55535.082344620008371, -0.00386509, -0.00194877, -0.00216745, 0.0748433, 0.600989, 0.310682
55535.115660954004852, -0.00387003, -0.00194933, -0.00216774, 0.0749273, 0.601943, 0.309973
55535.148977225006092, -0.00386872, -0.00195062, -0.00216796, 0.0748596, 0.602388, 0.309746
55535.182293620004202, -0.00387208, -0.00195138, -0.0021682, 0.0748312, 0.602841, 0.309447
55535.215609897008108, -0.00384383, -0.00195374, -0.00217207, 0.0745822, 0.603035, 0.310179
55535.248926287007635, -0.00382338, -0.00195611, -0.00217392, 0.0742983, 0.602761, 0.310847
55535.28224262000731, -0.0038242, -0.00195618, -0.00217413, 0.0743084, 0.603031, 0.310738
55535.31570892000309, -0.00382755, -0.00195726, -0.00217372, 0.0740336, 0.602158, 0.311017
55535.349025287003315, -0.0038075, -0.00195865, -0.0021777, 0.0739032, 0.601963, 0.311683
55535.382341559008637, -0.00377606, -0.00196026, -0.0021859, 0.0737813, 0.601694, 0.312861
55535.415657954006747, -0.00376127, -0.00196151, -0.00219291, 0.0736174, 0.601529, 0.313651
55535.448974287006422, -0.00375416, -0.00196272, -0.002195, 0.0735637, 0.601812, 0.313807
55535.482290639003622, -0.00375029, -0.00196353, -0.00219789, 0.0734978, 0.601896, 0.314033
55535.515606920009304, -0.00374882, -0.00196363, -0.00219953, 0.0734819, 0.601712, 0.314203
55535.548923254005786, -0.00373129, -0.00196528, -0.00220827, 0.0735163, 0.601609, 0.315051
55535.582239620009204, -0.00373137, -0.00196574, -0.00221157, 0.0734929, 0.601601, 0.315258
55535.615555897005834, -0.003726, -0.00196596, -0.00221336, 0.0735443, 0.601567, 0.315426
55535.648872287005361, -0.00371112, -0.00196725, -0.00221703, 0.0736534, 0.60174, 0.315828
55535.682338587008417, -0.00369009, -0.00196942, -0.00222292, 0.0738422, 0.602035, 0.31636
55535.715654954008642, -0.00367315, -0.00197009, -0.00222796, 0.0740528, 0.602085, 0.316768
55535.74897125800635, -0.00366873, -0.00196949, -0.00222919, 0.0741414, 0.602048, 0.316847
55535.782287620007992, -0.00365852, -0.00197029, -0.00222807, 0.0742982, 0.602484, 0.316863
55535.815603920003923, -0.00363724, -0.00197179, -0.00223021, 0.074607, 0.603066, 0.317092
55535.848920287004148, -0.00363605, -0.00197208, -0.00223038, 0.0746348, 0.603156, 0.317121
55535.882236620003823, -0.00362485, -0.00197325, -0.00223223, 0.0748222, 0.603567, 0.317227
55535.915552901009505, -0.00361736, -0.00197197, -0.00223601, 0.0751679, 0.603884, 0.3173
55535.948869287007255, -0.00362198, -0.00196966, -0.00223778, 0.0752831, 0.603672, 0.317228
55535.982185620006931, -0.00362549, -0.00196828, -0.00223973, 0.0752876, 0.603399, 0.317261
55536.015651892004826, -0.00362559, -0.00196817, -0.00223975, 0.0753136, 0.603418, 0.317241
55536.048968254006468, -0.00364068, -0.00196344, -0.00224169, 0.0753862, 0.602825, 0.317089
55536.082284620009887, -0.00367956, -0.00195355, -0.00224659, 0.0754757, 0.601584, 0.316801
55536.115601192002941, -0.00368738, -0.00195161, -0.00224783, 0.0754715, 0.601323, 0.316762
55536.148917254009575, -0.00371152, -0.00194522, -0.00224797, 0.07553, 0.600584, 0.316464
55536.182233592007833, -0.00371666, -0.00194421, -0.00224768, 0.0756104, 0.600494, 0.316356
55536.215549920008925, -0.00371863, -0.00194268, -0.00224918, 0.0755275, 0.600242, 0.316439
55536.24886628700915, -0.00372509, -0.00194042, -0.00225005, 0.0752728, 0.599965, 0.31651
55536.282182592003664, -0.00373457, -0.00193904, -0.00224792, 0.0752897, 0.599864, 0.316317
55536.315498982003191, -0.00374771, -0.00193615, -0.00224566, 0.075256, 0.599526, 0.316166
55536.348815287004982, -0.00375408, -0.00193531, -0.00224362, 0.0752376, 0.599475, 0.316046
55536.382281620004505, -0.00374984, -0.00193603, -0.00224404, 0.0752016, 0.599656, 0.316081
55536.415597920007713, -0.00373753, -0.00193935, -0.00224321, 0.0752591, 0.600272, 0.315948
55536.448914258005971, -0.00373358, -0.00194093, -0.00224485, 0.0753569, 0.600271, 0.3161
55536.482230587003869, -0.00372901, -0.00194379, -0.00224593, 0.0754786, 0.600348, 0.31618
55536.515546925009403, -0.00371501, -0.00194577, -0.00224789, 0.0755153, 0.60076, 0.316173
55536.548863287003769, -0.00370363, -0.00194728, -0.00224986, 0.0755532, 0.600924, 0.316303
55536.582179592005559, -0.00370214, -0.00194908, -0.00224988, 0.0756296, 0.600866, 0.316369
55536.615495954007201, -0.00370312, -0.00194928, -0.00224915, 0.0756323, 0.600643, 0.316533
55536.648812254003133, -0.00369853, -0.00194916, -0.00225004, 0.075635, 0.600625, 0.316652
55536.682128592008667, -0.00369172, -0.00194863, -0.00225212, 0.0756623, 0.600916, 0.316653
55536.71559492500819, -0.00367149, -0.00195087, -0.00225524, 0.0758324, 0.601013, 0.317056
55536.748911287009832, -0.00365216, -0.00195316, -0.00225562, 0.0759542, 0.601003, 0.317211
55536.782228135009063, -0.00364774, -0.0019532, -0.00225566, 0.07598, 0.600955, 0.317368
55536.815543920005439, -0.00364376, -0.00195422, -0.00225523, 0.0760731, 0.600826, 0.31734
55536.848860254009196, -0.00363008, -0.00195468, -0.00225705, 0.0761851, 0.601117, 0.317149
55536.882176620005339, -0.00362243, -0.00195531, -0.00225522, 0.0763198, 0.600984, 0.317056
55536.915492954009096, -0.0036229, -0.00195597, -0.00225455, 0.0763773, 0.600855, 0.316934
55536.948809287008771, -0.00361862, -0.00195581, -0.00225522, 0.0764571, 0.600972, 0.316793
55536.982125587004703, -0.00361875, -0.00195557, -0.00225529, 0.0764945, 0.601003, 0.316716
55537.015441920004378, -0.00362322, -0.0019546, -0.00225765, 0.0766536, 0.601354, 0.31614
55537.048908287004451, -0.00363783, -0.00195286, -0.00226045, 0.0768895, 0.601859, 0.31508
55537.082224620004126, -0.00365793, -0.00195269, -0.00226304, 0.0770043, 0.602534, 0.31379
55537.115540954007884, -0.00367203, -0.00194917, -0.00226802, 0.0771616, 0.603635, 0.312879
55537.148857287007559, -0.00368995, -0.00194867, -0.00226964, 0.0772378, 0.604195, 0.311903
55537.18217358700349, -0.00368916, -0.00195084, -0.00226988, 0.0771304, 0.604384, 0.311591
55537.215489920003165, -0.00368444, -0.00195201, -0.0022708, 0.076988, 0.604414, 0.311753
55537.248806258008699, -0.00367812, -0.00195243, -0.00227175, 0.0768661, 0.604592, 0.312019
55537.28212259200518, -0.00367554, -0.00195281, -0.00227279, 0.0767501, 0.604739, 0.312221
55537.315438925004855, -0.00363701, -0.00195446, -0.00227694, 0.0764802, 0.604524, 0.313807
55537.348755253005947, -0.00361259, -0.00195599, -0.00228154, 0.0762346, 0.6049, 0.314702
55537.382071620006172, -0.00360633, -0.00195655, -0.0022827, 0.0761506, 0.604911, 0.315025
55537.415537953005696, -0.00359438, -0.00195777, -0.00228321, 0.0761056, 0.604699, 0.315414
55537.448854258007486, -0.00356612, -0.0019591, -0.0022888, 0.0759627, 0.604952, 0.316449
55537.482170587005385, -0.00356024, -0.0019596, -0.00228933, 0.0759515, 0.604852, 0.316651
55537.515486953008804, -0.0035421, -0.00195938, -0.00229226, 0.07598, 0.604927, 0.317347
55537.548803253004735, -0.00354169, -0.00196013, -0.00229233, 0.0759491, 0.60482, 0.317365
55537.582119592007075, -0.00353584, -0.00196, -0.00229369, 0.0759693, 0.604832, 0.317615
55537.615435944004275, -0.00352836, -0.00196069, -0.00229676, 0.0759696, 0.604694, 0.318119
55537.648752253007842, -0.00350772, -0.00196257, -0.00230517, 0.0759769, 0.604617, 0.319301
55537.682068620008067, -0.0035039, -0.0019627, -0.00230677, 0.0759936, 0.60466, 0.319538
55537.715384920003999, -0.00348662, -0.00196434, -0.00231419, 0.0760223, 0.604405, 0.320603
55537.748851263007964, -0.00344561, -0.00196619, -0.00232702, 0.0761489, 0.604467, 0.322463
55537.782167620003747, -0.00343734, -0.00196419, -0.00232817, 0.076281, 0.605111, 0.32279
55537.815483953003422, -0.0034014, -0.00195748, -0.00234114, 0.0768098, 0.606854, 0.32463
55537.84880028700718, -0.0034014, -0.00195748, -0.00234114, 0.0768098, 0.606854, 0.32463
55537.882116587003111, -0.00342779, -0.00196804, -0.00232673, 0.0759133, 0.605267, 0.324141
55537.91543295300653, -0.00342921, -0.00196803, -0.00232644, 0.0758991, 0.605217, 0.324115
55537.94874925800832, -0.00343558, -0.00196586, -0.00232808, 0.0759489, 0.604678, 0.324048
55537.982065620009962, -0.00343939, -0.00196573, -0.00232859, 0.0759356, 0.604453, 0.324052
55538.015381953009637, -0.00344606, -0.00196472, -0.00233021, 0.0759493, 0.60411, 0.324021
55538.048698287006118, -0.00345655, -0.00196239, -0.00233389, 0.0759942, 0.603306, 0.324018
55538.082014587009326, -0.00346873, -0.00196059, -0.00233493, 0.0760203, 0.602886, 0.323892
55538.115480953005317, -0.0034957, -0.00195879, -0.00233462, 0.076, 0.602374, 0.323575
55538.148797253008524, -0.00352519, -0.00195591, -0.00233974, 0.0759694, 0.600755, 0.323557
55538.182113587005006, -0.00352908, -0.00195461, -0.00233971, 0.0760372, 0.601012, 0.323452
55538.215429934003623, -0.00354181, -0.00195339, -0.00234174, 0.0760139, 0.600363, 0.323421
55538.248746482007846, -0.00356395, -0.00195018, -0.00234585, 0.0760892, 0.599243, 0.323306
55538.282062587008113, -0.00357137, -0.00194937, -0.00234644, 0.0760898, 0.598892, 0.323253
55538.315378953004256, -0.00357161, -0.00194948, -0.00234747, 0.0760354, 0.5987, 0.323365
55538.348695258006046, -0.00357645, -0.00194946, -0.0023506, 0.0759714, 0.598, 0.323612
55538.382011620007688, -0.00358073, -0.00194921, -0.00235266, 0.0759376, 0.597519, 0.323747
55538.41532792000362, -0.00358663, -0.00194906, -0.0023544, 0.075846, 0.596912, 0.323868
55538.448794287003693, -0.00358436, -0.00194955, -0.00235693, 0.0756898, 0.596604, 0.324136
55538.4821105870069, -0.00358649, -0.00194949, -0.00235732, 0.0756808, 0.596437, 0.324196
55538.515426953003043, -0.00358874, -0.00194938, -0.00235808, 0.0756673, 0.596285, 0.32423
55538.548743253006251, -0.00358254, -0.00194915, -0.00236011, 0.0757358, 0.596622, 0.324453
55538.582059587010008, -0.0035905, -0.0019495, -0.00235806, 0.075736, 0.596302, 0.32422
55538.615375925008266, -0.00359047, -0.00194917, -0.0023585, 0.0757377, 0.596492, 0.324166
55538.648692253009358, -0.00358891, -0.00194954, -0.00235752, 0.0758625, 0.596391, 0.324315
55538.682008591007616, -0.00359538, -0.00195001, -0.0023563, 0.0759544, 0.596146, 0.324355
55538.715324920005514, -0.00361997, -0.00195127, -0.00235317, 0.0759475, 0.595399, 0.3242
55538.748641287005739, -0.00362614, -0.00195339, -0.00234979, 0.0760768, 0.59458, 0.324538
55538.781957587008947, -0.00361095, -0.00195415, -0.00234963, 0.076225, 0.594495, 0.324933
55538.815423953004938, -0.00359371, -0.00195178, -0.00235277, 0.0764055, 0.595156, 0.325063
55538.848740287008695, -0.00356631, -0.00195033, -0.00235516, 0.076591, 0.595456, 0.325495
55538.88205662000837, -0.00355646, -0.0019562, -0.00235021, 0.0768743, 0.59458, 0.325641
55538.915372953008045, -0.00355821, -0.0019568, -0.00235002, 0.0769136, 0.594517, 0.325545
55538.948689258009836, -0.00355171, -0.0019552, -0.00235285, 0.0770061, 0.594872, 0.325328
55538.982005620004202, -0.00353109, -0.00195003, -0.00235736, 0.0770945, 0.595736, 0.325282
55539.015321920007409, -0.00351705, -0.00194466, -0.00236117, 0.0772069, 0.596478, 0.325155
55539.048638253007084, -0.00350631, -0.00193781, -0.00236589, 0.0773517, 0.597396, 0.324848
55539.081954591005342, -0.0035057, -0.00193731, -0.00236586, 0.0773497, 0.597494, 0.324847
55539.115270953006984, -0.00350036, -0.00193588, -0.00236669, 0.0773507, 0.597701, 0.324938
55539.148737258008623, -0.00350087, -0.00193595, -0.00236682, 0.0773352, 0.597724, 0.324922
55539.182053620002989, -0.00350174, -0.00193849, -0.00236529, 0.0773179, 0.59743, 0.324862
55539.21536995300994, -0.00349463, -0.00193895, -0.00236589, 0.0771951, 0.597619, 0.325235
55539.248686287006421, -0.00349551, -0.00193849, -0.00236778, 0.0770989, 0.59791, 0.325384
55539.282002591004129, -0.00348997, -0.00194121, -0.00236896, 0.0768777, 0.59801, 0.3259
55539.315318958004354, -0.00348517, -0.00194287, -0.00236915, 0.076773, 0.598058, 0.326096
55539.348635258007562, -0.00349116, -0.00194588, -0.00236931, 0.0767292, 0.597876, 0.325656
55539.38195158700546, -0.00347984, -0.00194814, -0.00237149, 0.0765518, 0.598026, 0.326215
55539.415267925003718, -0.00347017, -0.00195345, -0.00237108, 0.0764153, 0.597628, 0.326562
55539.448584286008554, -0.00345661, -0.00195573, -0.00237246, 0.0762901, 0.597772, 0.326968
55539.481900620005035, -0.00343042, -0.00195027, -0.00237295, 0.0763475, 0.598317, 0.328063
55539.515366920008091, -0.00341717, -0.00194967, -0.0023711, 0.0764041, 0.598122, 0.328647
55539.548683286004234, -0.00340748, -0.00195303, -0.00237143, 0.0763585, 0.597675, 0.329064
55539.581999620007991, -0.0033979, -0.00195976, -0.00237196, 0.076266, 0.596894, 0.329282
55539.615315925009781, -0.0033928, -0.00196367, -0.00237328, 0.076199, 0.596518, 0.329473
55539.648632253003598, -0.00338966, -0.0019653, -0.00237487, 0.0761737, 0.596405, 0.329764
55539.681948620003823, -0.00337225, -0.0019667, -0.00237625, 0.0762076, 0.596135, 0.330365
55539.715264925005613, -0.00336736, -0.00196079, -0.00237587, 0.0763299, 0.59682, 0.330936
55539.748581258005288, -0.0033582, -0.00195934, -0.00237617, 0.0763997, 0.596656, 0.331199
55539.781897558008495, -0.00334462, -0.00195362, -0.00237578, 0.0765631, 0.596856, 0.331604
55539.815213920002861, -0.00333726, -0.00195229, -0.0023763, 0.0766277, 0.596818, 0.331804
55539.848680253009661, -0.00332354, -0.00195053, -0.00237813, 0.0767334, 0.596657, 0.332244
55539.881996586009336, -0.00333135, -0.00195017, -0.00237792, 0.0767217, 0.596615, 0.332139
55539.9153129250044, -0.00333242, -0.00195102, -0.00237784, 0.0766975, 0.596574, 0.332111
55539.948629253005493, -0.00333122, -0.00194993, -0.00237746, 0.0767226, 0.596673, 0.332118
55539.981945586005168, -0.00333359, -0.00194668, -0.00237749, 0.0767911, 0.596856, 0.332047
55540.015261920008925, -0.00333928, -0.00194292, -0.00237686, 0.0768621, 0.596962, 0.33192
55540.048578286005068, -0.0033402, -0.00194211, -0.00237724, 0.0768838, 0.596893, 0.331911
55540.081894563008973, -0.00334608, -0.00193904, -0.00237915, 0.0769612, 0.596804, 0.331894
55540.11521094400814, -0.00334757, -0.00193611, -0.0023798, 0.0770369, 0.596957, 0.331905
55540.148527253004431, -0.00336141, -0.00193332, -0.00238269, 0.0771001, 0.596606, 0.331877
55540.181993620004505, -0.00337551, -0.00193194, -0.00238458, 0.0771171, 0.596315, 0.331769
55540.21530995300418, -0.00338779, -0.0019301, -0.0023853, 0.0771469, 0.596172, 0.331671
55540.248626253007387, -0.00339357, -0.00192958, -0.00238626, 0.0771559, 0.596041, 0.331689
55540.28194256300776, -0.00339161, -0.00193051, -0.00238585, 0.0771232, 0.596063, 0.331692
55540.31525892400532, -0.00340724, -0.00192907, -0.00238692, 0.0771344, 0.595785, 0.331643
55540.348575301009987, -0.00340292, -0.00193079, -0.00238769, 0.0770822, 0.595617, 0.331732
55540.381891634009662, -0.00339956, -0.00193369, -0.00238916, 0.0769764, 0.595304, 0.331758
55540.415207924008428, -0.00341107, -0.00193303, -0.00239002, 0.076962, 0.595064, 0.331691
55540.44852428601007, -0.00339407, -0.00193545, -0.00239144, 0.0768677, 0.595015, 0.331949
55540.481841286004055, -0.00339495, -0.00193693, -0.00239291, 0.0767667, 0.594679, 0.331942
55540.515156920009758, -0.00340184, -0.00193786, -0.00239498, 0.0766974, 0.594241, 0.33194
55540.548623258007865, -0.00339959, -0.00193919, -0.00239752, 0.0765764, 0.593925, 0.332047
55540.581939620009507, -0.00341488, -0.0019399, -0.00239954, 0.0764853, 0.593237, 0.332092
55540.615255953009182, -0.00341201, -0.00194104, -0.00240203, 0.076379, 0.59298, 0.332182
55540.648572253005113, -0.00342181, -0.00194187, -0.00240366, 0.0762909, 0.592459, 0.332313
55540.681888558006904, -0.0034439, -0.00194216, -0.00240423, 0.0762347, 0.59179, 0.332275
55540.715204977008398, -0.00346247, -0.00194189, -0.00240269, 0.0762693, 0.59132, 0.332283
55540.748521286004689, -0.00347253, -0.00194178, -0.00240086, 0.0763155, 0.591056, 0.332294
55540.781837591006479, -0.00347559, -0.00194161, -0.00239978, 0.0763625, 0.590993, 0.332312
55540.815153924006154, -0.00349336, -0.00194165, -0.00239942, 0.0763489, 0.590675, 0.332146
55540.848470253004052, -0.00347546, -0.00193993, -0.00240233, 0.0763599, 0.591422, 0.3321
55540.881936558005691, -0.00346563, -0.00193814, -0.00240176, 0.0764659, 0.591842, 0.332076
55540.915252953003801, -0.00346897, -0.00193729, -0.00240145, 0.0765086, 0.591932, 0.331909
55540.948569253007008, -0.00346289, -0.00193688, -0.00240042, 0.0765616, 0.592026, 0.331967
55540.981885620007233, -0.00346554, -0.00193666, -0.00240053, 0.0765648, 0.592028, 0.33189
55541.015201924004941, -0.00346875, -0.00193649, -0.00239981, 0.0765924, 0.591935, 0.331831
55541.048518286006583, -0.003463, -0.001933, -0.00239972, 0.0767271, 0.592448, 0.331544
55541.081834591008374, -0.00346115, -0.00193195, -0.00240044, 0.0767522, 0.592684, 0.331417
55541.115150953010016, -0.00345646, -0.00192971, -0.00240022, 0.0768281, 0.593001, 0.331385
55541.14846725800453, -0.00345259, -0.00193049, -0.00240012, 0.0768101, 0.592962, 0.331461
55541.181783620006172, -0.00344605, -0.00192981, -0.00240025, 0.0768216, 0.593144, 0.331602
55541.215099953005847, -0.00344562, -0.0019288, -0.00240189, 0.0768004, 0.593671, 0.331197
55541.248566286005371, -0.00345349, -0.00192563, -0.00239979, 0.076931, 0.593698, 0.331104
55541.281882562005194, -0.00345907, -0.00192282, -0.00239919, 0.0770081, 0.593883, 0.331002
55541.315198924006836, -0.00345545, -0.00192591, -0.00240084, 0.0769038, 0.59386, 0.33089
55541.348515253004734, -0.0034544, -0.00192648, -0.00240141, 0.0768586, 0.593988, 0.330835
55541.381831620004959, -0.0034507, -0.00192761, -0.00240192, 0.0768253, 0.594018, 0.33088
55541.415147953004634, -0.00343592, -0.00193221, -0.00240327, 0.0767115, 0.593965, 0.331133
55541.44846428600431, -0.00342105, -0.00193496, -0.00240383, 0.0766531, 0.593982, 0.331401
55541.4817805910061, -0.00340891, -0.00193736, -0.00240509, 0.0765958, 0.594049, 0.331576
55541.515096920003998, -0.00338649, -0.00194264, -0.00240713, 0.0764995, 0.593781, 0.33193
55541.548413286007417, -0.00336295, -0.00195077, -0.00241012, 0.0763405, 0.593496, 0.332119
55541.581879591009056, -0.00334947, -0.00195425, -0.00241215, 0.0762892, 0.593206, 0.332348
55541.615195924008731, -0.00331935, -0.00195982, -0.00241428, 0.0762209, 0.592955, 0.33286
55541.648512253006629, -0.00329894, -0.00196574, -0.00241746, 0.0761396, 0.592399, 0.333051
55541.681828619010048, -0.0032776, -0.0019697, -0.00241937, 0.0761057, 0.592169, 0.333352
55541.715144919005979, -0.00323567, -0.00197638, -0.00242286, 0.0760702, 0.59182, 0.333965
55541.748461286006204, -0.00323308, -0.00197619, -0.00242301, 0.0760829, 0.591766, 0.334005
55541.781777619005879, -0.00320846, -0.00197944, -0.00242561, 0.0760855, 0.591507, 0.334345
55541.815093953009637, -0.00320278, -0.00197993, -0.00242623, 0.0760945, 0.591448, 0.334434
55541.848410286009312, -0.00318785, -0.00198193, -0.00242831, 0.0761009, 0.591254, 0.334645
55541.881726619008987, -0.00317081, -0.00198389, -0.00242977, 0.0761105, 0.591174, 0.334897
55541.915042953005468, -0.00316094, -0.00198617, -0.0024329, 0.0760933, 0.590879, 0.334991
55541.948509258007107, -0.00313909, -0.00198641, -0.00243349, 0.0761569, 0.590913, 0.335318
55541.981825619004667, -0.00309827, -0.00198756, -0.00243585, 0.0762657, 0.590909, 0.335923
55542.015142262003792, -0.00309827, -0.00198756, -0.00243585, 0.0762657, 0.590909, 0.335923
55542.048458258002938, -0.00308326, -0.00198885, -0.00243601, 0.0762888, 0.590972, 0.336153
55542.08177458600403, -0.00308466, -0.00198744, -0.00243538, 0.0763176, 0.591053, 0.336157
55542.115090953004255, -0.00308055, -0.00198585, -0.00244124, 0.0763434, 0.5906, 0.336137
55542.14840728600393, -0.00306316, -0.00198154, -0.00245345, 0.0764467, 0.589758, 0.336217
55542.181723619003606, -0.00306258, -0.00197793, -0.00245565, 0.0765118, 0.589728, 0.336209
55542.215039953007363, -0.00306207, -0.00197624, -0.00245501, 0.0765584, 0.589885, 0.336267
55542.248356253003294, -0.00306734, -0.00197204, -0.00245906, 0.0766167, 0.589679, 0.336173
55542.281822619006562, -0.00308446, -0.00196261, -0.00246294, 0.0767664, 0.589555, 0.336014
55542.31513895700482, -0.00312277, -0.0019441, -0.00246769, 0.0770648, 0.589555, 0.335729
55542.348455286009994, -0.00313516, -0.00193984, -0.00247064, 0.0771074, 0.589358, 0.33558
55542.381771586005925, -0.00313722, -0.00193585, -0.00246756, 0.0772402, 0.589847, 0.335713
55542.415087891007715, -0.00322135, -0.00191411, -0.00246691, 0.0775344, 0.590059, 0.335084
55542.448404286005825, -0.00323476, -0.00190881, -0.00247044, 0.0776019, 0.589823, 0.334973
55542.481720586009033, -0.00322032, -0.00191156, -0.00246958, 0.0775855, 0.589925, 0.335112
55542.515036924007291, -0.00323743, -0.00191413, -0.00247807, 0.0773309, 0.58868, 0.334686
55542.548353253005189, -0.00322081, -0.00191981, -0.0024796, 0.0772182, 0.588535, 0.334759
55542.581669586004864, -0.0032155, -0.00192198, -0.0024796, 0.0771736, 0.588562, 0.334769
55542.614985953005089, -0.00316839, -0.00193056, -0.00247791, 0.0771305, 0.589125, 0.335129
55542.648452286004613, -0.00315031, -0.00193503, -0.0024791, 0.0770342, 0.589088, 0.335178
55542.681768562004436, -0.00310517, -0.00194148, -0.0024779, 0.0770329, 0.589699, 0.335467
55542.715084919007495, -0.00308688, -0.00194483, -0.0024782, 0.0769915, 0.58998, 0.33552
55542.748401257005753, -0.00306081, -0.00194667, -0.00248016, 0.0769873, 0.590019, 0.335782
55542.781717586003651, -0.00305506, -0.00194673, -0.00248023, 0.0770017, 0.590051, 0.335866
55542.815033953003876, -0.00305659, -0.00194615, -0.00248001, 0.0770205, 0.590069, 0.335889
55542.848350310006936, -0.00306667, -0.00194577, -0.00248091, 0.0769563, 0.590058, 0.335673
55542.881666562003375, -0.00304537, -0.00194593, -0.00248326, 0.0769421, 0.590183, 0.335844
55542.914982919006434, -0.00307078, -0.001945, -0.00248083, 0.0769315, 0.589882, 0.335848
55542.948299286006659, -0.00306687, -0.00194459, -0.0024825, 0.0768906, 0.590043, 0.335632
55542.981765591008298, -0.00304136, -0.00194374, -0.00248463, 0.0769197, 0.590448, 0.335504
55543.01508195300994, -0.00303346, -0.00194318, -0.00248612, 0.0769072, 0.590679, 0.335283
