time, bias_gyr_x, bias_gyr_y, bias_gyr_z, bias_acc_x, bias_acc_y, bias_acc_z
-1, 0, 0, 0, 0, 0, 0
-1, 0, 0, 0, 0, 0, 0
55629.508147911008564, 0, 0, 0, 0, 0, 0
55629.541464240006462, 0.0163821, -0.0087654, -0.0159246, -0.000210246, -0.000290945, 0.000379799
55629.574780616007047, 0.00226829, 0.0074275, -0.0213841, -0.00618089, -0.00285454, 5.15264e-05
55629.608096878007927, -0.0039754, 0.00969997, -0.0199074, -0.00532202, -0.00122862, -0.000643983
55629.641413273006037, -0.0051183, 0.0135664, -0.0136867, 0.00319373, -0.000318686, 0.00233752
55629.674879606005561, -0.00577459, 0.016303, -0.0062019, 0.0645852, -0.000603715, 0.0236812
55629.708195906008768, -0.00323189, 0.0169445, 0.00184143, 0.062507, -0.000447269, 0.023165
55629.741512273008993, -0.00415981, 0.0152907, 0.00824656, 0.0754684, -0.000190522, 0.0277098
55629.774828578003508, -0.00347543, 0.0143603, 0.00981201, 0.121037, 0.00215537, 0.0430973
55629.808144883005298, -0.00464691, 0.0151699, 0.00872888, 0.120091, 0.00190074, 0.0429841
55629.841461240008357, -0.00639383, 0.0154209, 0.00826435, 0.134764, 0.00227404, 0.0479669
55629.874777573008032, -0.00631096, 0.0139959, 0.00812551, 0.160216, 0.00482673, 0.0564161
55629.908093906007707, -0.00545283, 0.0127573, 0.00777005, 0.179695, 0.00741016, 0.0629986
55629.941410273007932, -0.00642279, 0.0117324, 0.00760788, 0.191545, 0.00926085, 0.0666935
55629.974726573003863, -0.00592328, 0.0105953, 0.00730845, 0.224586, 0.0143171, 0.077481
55630.008192944005714, -0.00609156, 0.00923899, 0.00729253, 0.224075, 0.014176, 0.0766649
55630.041509273003612, -0.00596566, 0.0100608, 0.00728701, 0.188072, 0.0103149, 0.0638361
55630.074825606003287, -0.00520628, 0.00998463, 0.00671366, 0.185445, 0.00994692, 0.0620119
55630.108141906006495, -0.00488137, 0.0113912, 0.00640537, 0.187421, 0.0105567, 0.06266
55630.141458216006868, -0.00538986, 0.0130259, 0.00701743, 0.175997, 0.00906985, 0.0583511
55630.174774573009927, -0.0063548, 0.012768, 0.0073771, 0.18034, 0.01077, 0.0515342
55630.208090940002876, -0.00607308, 0.0122287, 0.00765406, 0.186097, 0.0115802, 0.0469507
55630.241407273009827, -0.00599005, 0.0107708, 0.0074044, 0.190878, 0.0106375, 0.052552
55630.274723573005758, -0.00449846, 0.00987513, 0.00741071, 0.199432, 0.0120858, 0.0486187
55630.308039940005983, -0.00288887, 0.0102838, 0.00767694, 0.198818, 0.0132818, 0.0438134
55630.341356240009191, -0.00296428, 0.0115273, 0.00766766, 0.189171, 0.0107595, 0.0426851
55630.37482254900533, -0.0029522, 0.0123899, 0.00751684, 0.18475, 0.00936854, 0.0441462
55630.408138963008241, -0.0027821, 0.0113777, 0.00736491, 0.195407, 0.0173807, 0.0406732
55630.441455244006647, -0.00307853, 0.0112109, 0.007376, 0.202704, 0.0260965, 0.0373351
55630.474771606008289, -0.00307997, 0.0107455, 0.00722328, 0.209437, 0.0351063, 0.0347653
55630.508087882008113, -0.00302702, 0.0106707, 0.00683229, 0.2114, 0.0361759, 0.033184
55630.541404244009755, -0.00273971, 0.0104303, 0.00642756, 0.214958, 0.038012, 0.0298529
55630.574720606004121, -0.00205896, 0.00975345, 0.00605872, 0.220468, 0.043327, 0.0256836
55630.608036882003944, -0.00115927, 0.00858988, 0.00534346, 0.227602, 0.0526129, 0.0198455
55630.641353244005586, -0.00054338, 0.0072976, 0.00450608, 0.233939, 0.0623528, 0.0152557
55630.674669606007228, -0.000176463, 0.00632722, 0.00355299, 0.23914, 0.0712419, 0.0095379
55630.708135944005335, -0.000548007, 0.00565126, 0.00300244, 0.24054, 0.0746793, 0.0116418
55630.741452244008542, -0.000889959, 0.00619908, 0.00307617, 0.235723, 0.0606272, 0.014672
55630.774768606002908, -0.00115722, 0.00632543, 0.00315534, 0.232188, 0.0485135, 0.015028
55630.808084878008231, -0.0012075, 0.00617155, 0.0031168, 0.233728, 0.0527575, 0.0154556
55630.841401244004373, -0.00024769, 0.00570375, 0.00312775, 0.23607, 0.0646391, 0.0220911
55630.874717606006016, 0.000178305, 0.00523575, 0.00325923, 0.239411, 0.0777389, 0.0246068
55630.908033940009773, 0.000405047, 0.0050739, 0.00303418, 0.242968, 0.0807685, 0.0177695
55630.941350244007481, 0.000195678, 0.00512147, 0.00308523, 0.240409, 0.0730514, 0.0184233
55630.974666611007706, 6.59499e-05, 0.00519635, 0.00300836, 0.240676, 0.0688999, 0.0144431
55631.007982940005604, -0.000365038, 0.00523026, 0.00287439, 0.240516, 0.0633857, 0.00981975
55631.041299273005279, 0.000931647, 0.00509754, 0.00318809, 0.239812, 0.0724379, 0.0208434
55631.074765606004803, 0.000646872, 0.00501631, 0.00336331, 0.243161, 0.0959043, 0.0275271
55631.10808194000856, 0.000606466, 0.00470458, 0.00316063, 0.245319, 0.0952194, 0.0227594
55631.141398282008595, 0.000646648, 0.00456043, 0.00312733, 0.243851, 0.0793813, 0.0200692
55631.17471460600791, 0.0010352, 0.00459408, 0.00308885, 0.241293, 0.0648757, 0.0208438
55631.208030906003842, 0.00150977, 0.00484127, 0.00318115, 0.240095, 0.0580604, 0.0198743
55631.241347273004067, 0.00153762, 0.00487326, 0.00326495, 0.239125, 0.0491411, 0.018808
55631.274663606003742, 0.00183, 0.00459281, 0.00308995, 0.238867, 0.0293481, 0.0138312
55631.307979939003417, 0.00189351, 0.00453212, 0.00282524, 0.23942, 0.00760281, 0.00411239
55631.341296273007174, 0.00203173, 0.00435324, 0.00248981, 0.240457, -0.00975127, -0.00432122
55631.374612606006849, 0.00196523, 0.00425644, 0.00238209, 0.241307, -0.00503161, -0.001429
55631.408078939006373, 0.00203491, 0.00393784, 0.00236393, 0.242981, 0.0123377, 0.00579777
55631.44139523900958, 0.00240774, 0.00347875, 0.00244539, 0.242962, 0.0141356, 0.0119039
55631.474711578004644, 0.00230924, 0.00379831, 0.00231415, 0.241535, -0.00114805, 0.00810362
55631.50802793900948, 0.00228018, 0.00390539, 0.0022205, 0.241467, -0.00552161, 0.0052038
55631.541344273005961, 0.00219983, 0.00398272, 0.00215253, 0.24115, -0.00899476, 0.00402256
55631.574660549005785, 0.00222021, 0.00391369, 0.00205864, 0.242928, -0.00439045, 0.00246358
55631.607976939005312, 0.00233316, 0.00365423, 0.00186091, 0.247616, 0.00687313, -0.00216306
55631.641293239008519, 0.00251057, 0.00329593, 0.00177838, 0.252709, 0.0168754, -0.00635135
55631.674609573005, 0.00242541, 0.00298907, 0.00172296, 0.255795, 0.018231, -0.00852953
55631.707925939008419, 0.00239651, 0.00268718, 0.00171471, 0.254967, 0.0141955, -0.00513733
55631.7412422730049, 0.00248206, 0.00237266, 0.00153568, 0.251921, 0.00685257, 0.000525045
55631.774708577009733, 0.00257014, 0.0021408, 0.00136578, 0.249162, 0.00107796, 0.00571913
55631.808024939004099, 0.00262924, 0.00200015, 0.00129516, 0.245761, -0.00585256, 0.0112907
55631.841341273007856, 0.00273087, 0.0018462, 0.00124779, 0.245174, -0.00670901, 0.0133291
55631.874657573003788, 0.00279948, 0.00165749, 0.00118625, 0.244, -0.00975083, 0.0157923
55631.907973882007354, 0.00277174, 0.00147621, 0.00109386, 0.244248, -0.0071838, 0.0174944
55631.941290239003138, 0.00249958, 0.00152104, 0.00123386, 0.244074, -0.00303282, 0.0212663
55631.974606577008672, 0.0020839, 0.00175825, 0.00139154, 0.244062, 0.00284787, 0.02414
55632.00792290600657, 0.00192776, 0.00205591, 0.00163596, 0.242938, 0.0073492, 0.0285524
55632.041239273006795, 0.00196545, 0.00183618, 0.00163003, 0.242673, 0.00334727, 0.0285163
55632.074555577004503, 0.00197911, 0.00165198, 0.00150577, 0.24284, -0.00227996, 0.0255382
55632.108021939005994, 0.00191863, 0.0014925, 0.00130251, 0.246086, -0.00899579, 0.0136577
55632.141338273009751, 0.00189429, 0.00133996, 0.00135999, 0.246579, -0.0186102, 0.00921629
55632.174654606009426, 0.00173043, 0.00130877, 0.00123588, 0.249644, -0.0248535, -0.00228747
55632.207970939009101, 0.00164602, 0.00125488, 0.00108679, 0.252875, -0.0274876, -0.0139761
55632.241287211007148, 0.00137371, 0.00123547, 0.000940919, 0.250762, -0.0139015, -0.0023531
55632.274603616009699, 0.00116211, 0.00128127, 0.000857962, 0.247271, 0.00287362, 0.0110539
55632.307919939004933, 0.00119466, 0.00116838, 0.000730679, 0.252698, -0.00356902, -0.00915844
55632.34123627300869, 0.00138868, 0.00104118, 0.000560229, 0.260924, -0.0204647, -0.0399209
55632.374552611006948, 0.0016279, 0.000737983, 0.00048274, 0.264241, -0.0323195, -0.0501155
55632.40786893900804, 0.00199865, 0.000355458, 0.000705173, 0.258143, -0.0333775, -0.0264939
55632.44133523900382, 0.00208091, 0.000105074, 0.000850481, 0.253369, -0.0330958, -0.00817984
55632.474651577009354, 0.00184151, -0.000216289, 0.000887157, 0.251765, -0.0338712, -0.00307554
55632.507967906007252, 0.00204199, -0.000198115, 0.000947854, 0.251266, -0.0345881, -0.00171061
55632.541284220009402, 0.00212389, -0.000172259, 0.00101866, 0.250729, -0.0361931, 0.000984859
55632.574600606007152, 0.00230423, -0.00011611, 0.00103878, 0.252668, -0.0419113, -0.00654991
55632.607916939006827, 0.00246801, -4.06328e-05, 0.0010104, 0.256827, -0.051356, -0.0223174
55632.641233225003816, 0.00260474, -3.67826e-05, 0.000916882, 0.260888, -0.0597452, -0.0377775
55632.674549606002984, 0.00266259, -7.67254e-05, 0.000738506, 0.263955, -0.064254, -0.0489718
55632.707865939009935, 0.00264141, -9.11341e-05, 0.000452269, 0.26649, -0.0649083, -0.0574005
55632.741182273006416, 0.00245339, -0.000125954, 0.000216953, 0.265922, -0.0613152, -0.0537961
55632.774498606006091, 0.00213455, -0.000234893, 8.347e-07, 0.26968, -0.0712829, -0.0637919
55632.807964939005615, 0.00176144, -0.000278992, -0.000133189, 0.271529, -0.0786886, -0.0681467
55632.841281211003661, 0.0014124, -0.000279135, -0.000197373, 0.269264, -0.0792675, -0.0609093
55632.87459757700708, 0.00133983, -0.000249904, -0.000155028, 0.264557, -0.0652034, -0.0480024
55632.907913906004978, 0.00132478, -0.000272404, -4.87869e-05, 0.260486, -0.0541557, -0.0356559
55632.941230273005203, 0.00131369, -0.000268615, -5.19636e-05, 0.259095, -0.0512219, -0.0308241
55632.974546754005132, 0.00132948, -0.000271753, -4.99677e-05, 0.256908, -0.0460245, -0.0243092
55633.007862906008086, 0.00140997, -0.000286987, 5.43789e-05, 0.25229, -0.0442254, -0.0100288
55633.041179244006344, 0.00150321, -0.000314883, 0.000272628, 0.250053, -0.0585442, -0.00303773
55633.074495606007986, 0.00176361, -0.000324894, 0.00047531, 0.248587, -0.0653691, 0.00091336
55633.107811939007661, 0.00185521, -0.000416332, 0.000527911, 0.24369, -0.0547826, 0.0174857
55633.141278273003991, 0.00203486, -0.000553742, 0.000470325, 0.241851, -0.0430298, 0.024806
55633.174594573007198, 0.00211778, -0.000629803, 0.000375513, 0.239452, -0.0272965, 0.0321323
55633.207910911005456, 0.00214068, -0.000623121, 0.000276083, 0.237822, -0.0173551, 0.0356098
55633.241227273007098, 0.00214832, -0.000599228, 0.000259864, 0.23757, -0.0111139, 0.0344797
55633.274543606006773, 0.00212624, -0.000513713, 0.000144652, 0.238993, -0.0130593, 0.0287002
55633.307859911008563, 0.0021033, -0.000467003, -4.80735e-05, 0.237772, 0.000487329, 0.0309499
55633.34117627300293, 0.00205363, -0.000532492, -0.000195548, 0.235573, 0.0133421, 0.0363493
55633.374492572009331, 0.00192144, -0.000592085, -0.000301045, 0.235258, 0.024898, 0.0363574
55633.407808882009704, 0.00178417, -0.000649882, -0.000289728, 0.232919, 0.0388106, 0.0421091
55633.441125211007602, 0.00165441, -0.000625654, -0.000320069, 0.231459, 0.0455393, 0.0463933
55633.474441572005162, 0.00156647, -0.000585375, -0.000348921, 0.228122, 0.0545964, 0.056403
55633.507907906008768, 0.00143608, -0.000545598, -0.0003552, 0.224033, 0.0631284, 0.0683099
55633.541224244007026, 0.00124033, -0.000551319, -0.000313577, 0.222425, 0.0554724, 0.0739173
55633.574540577006701, 0.000801016, -0.0004887, -0.000282626, 0.227788, 0.0352035, 0.0586507
55633.607856939008343, 0.000367908, -0.000283852, -0.000287462, 0.229865, 0.0204838, 0.0541702
55633.641173239004274, 0.000251095, -0.000168417, -0.000239707, 0.229473, 0.0143188, 0.0549474
55633.674489606004499, 0.000378661, -0.000160646, -0.000203457, 0.225888, 0.0237294, 0.0657549
55633.707805939004174, 0.00040096, -0.000231567, -0.000238474, 0.223561, 0.0328708, 0.0724232
55633.74112227200385, 0.000371339, -0.000264563, -0.00024122, 0.2224, 0.0391725, 0.0752874
55633.774438572007057, 0.000255425, -0.000301871, -0.000284351, 0.222967, 0.0416715, 0.0730971
55633.807754911009397, 6.31602e-05, -0.000365524, -0.000443203, 0.225102, 0.0417855, 0.0664581
55633.841221249007504, 8.70701e-05, -0.000438955, -0.000495903, 0.225731, 0.0433955, 0.0639332
55633.874537606003287, -4.25775e-05, -0.00048832, -0.000692751, 0.227253, 0.0424469, 0.058836
55633.90785388200311, 0.000111849, -0.000223158, -0.000752718, 0.229236, 0.0371424, 0.0522527
55633.941170272009913, 1.05335e-05, -0.000185803, -0.000739803, 0.227804, 0.0352076, 0.0586746
55633.974486572005844, 9.41327e-05, -7.47098e-05, -0.000545738, 0.230831, 0.0326047, 0.0487847
55634.007802939006069, 3.51334e-05, -4.94854e-05, -0.000539272, 0.232653, 0.0316002, 0.0426888
55634.0411152470042, 6.57815e-05, -7.42517e-05, -0.000609569, 0.234578, 0.0294272, 0.0358462
55634.074427649007703, 0.000107203, -9.87008e-05, -0.000549932, 0.235488, 0.0289151, 0.0329883
55634.10774001700338, 0.000140534, -0.000108294, -0.000541982, 0.233885, 0.0311895, 0.0385318
55634.141055452004366, 0.000187228, -0.000183238, -0.000563635, 0.230516, 0.0390134, 0.0493354
55634.174514737009304, 0.00027735, -0.000202658, -0.000503746, 0.229506, 0.0424567, 0.0526773
55634.207827105004981, 0.000418613, -0.000181629, -0.000388948, 0.229234, 0.0426701, 0.053577
55634.241139446006855, 0.000410655, -0.000206764, -0.000383681, 0.230133, 0.0387143, 0.050581
55634.274451814009808, 0.000323909, -8.12298e-05, -0.000319627, 0.233955, -0.00225153, 0.0400583
55634.307764212004258, 0.00018041, -0.000165694, -0.000237383, 0.234662, -0.0122371, 0.038533
55634.341076552009326, 6.65089e-05, -0.000183243, -0.000193974, 0.234423, -0.00650208, 0.0388013
55634.374388939009805, 1.45923e-05, -0.000173347, -0.000115939, 0.233501, -0.00413403, 0.0413451
55634.40770131800673, -9.40499e-05, -0.00024844, -0.000136, 0.232962, 0.0137485, 0.0415006
55634.441013658004522, -0.000214729, -0.000392659, -0.000289162, 0.234229, 0.0481482, 0.0340826
55634.47432608800591, -0.000265345, -0.000449974, -0.000257435, 0.232107, 0.0590231, 0.0394125
55634.507638424009201, -0.000139845, -0.00032759, -0.000117281, 0.229881, 0.0404663, 0.048001
55634.54110074100754, -2.96255e-05, -0.000338138, -5.53256e-05, 0.229887, 0.0510966, 0.0471755
55634.574413143003767, -0.000177879, -0.000449001, -5.59645e-05, 0.23231, 0.0893854, 0.0356872
55634.607725512003526, -0.00039387, -0.00051209, -1.61291e-05, 0.233894, 0.122202, 0.0270964
55634.641037881003285, -0.000195549, -0.000480932, 0.000154419, 0.23207, 0.121185, 0.0336485
55634.674350192006386, -0.00014852, -0.000468968, 0.000277033, 0.235015, 0.144882, 0.0228595
55634.70766262300458, -0.000165345, -0.000465848, 0.000307644, 0.237968, 0.160262, 0.0128279
55634.740974953005207, -0.000341851, -0.000493673, 0.000278274, 0.240499, 0.174242, 0.00383851
55634.774287351006933, -0.000232491, -0.000577077, 0.000366478, 0.240346, 0.184057, 0.00407226
55634.807599724008469, -0.000125767, -0.000582675, 0.000433507, 0.239078, 0.183501, 0.00784457
55634.840912059007678, -0.000267762, -0.000636439, 0.000329094, 0.2423, 0.188812, -0.00195927
55634.87437441500515, -0.000343449, -0.000682023, 0.000219132, 0.243736, 0.188095, -0.00630386
55634.90768681201007, -0.000288643, -0.000712333, 0.000216171, 0.239737, 0.176096, 0.00545963
55634.940999181009829, -0.000269959, -0.000746351, 0.00020344, 0.236685, 0.164025, 0.0146721
55634.974311521007621, -0.000305732, -0.000775379, 0.000139029, 0.236724, 0.156484, 0.0148124
55635.007623918005265, -0.000390562, -0.000847254, 9.87198e-05, 0.243153, 0.167861, -0.00128088
55635.040940363003756, -0.000476109, -0.000828888, 0.000127305, 0.246905, 0.178262, -0.00953906
55635.074256696003431, -0.00048293, -0.000827871, 0.00015197, 0.249473, 0.181534, -0.0155136
55635.107573058005073, -0.000486222, -0.000824503, 0.000141876, 0.250089, 0.184105, -0.0173807
55635.14088935800828, -0.000624617, -0.000825205, 0.000180006, 0.249901, 0.18135, -0.0165371
55635.174205725008505, -0.000673921, -0.00080008, 0.000263914, 0.242783, 0.180622, -0.00656135
55635.20752205800818, -0.000515311, -0.000809734, 0.000236183, 0.24487, 0.177589, -0.010144
55635.240988363009819, -0.000433846, -0.000804257, 0.000237495, 0.242802, 0.179842, -0.00394614
55635.274304725004185, -0.000251943, -0.000747061, 0.000304668, 0.238987, 0.184792, 0.00694239
55635.307621058003861, -0.000130437, -0.000692933, 0.000379103, 0.237888, 0.186413, 0.0083199
55635.340937358007068, -6.16878e-06, -0.000660615, 0.000475915, 0.237031, 0.185779, 0.00904456
55635.374253691006743, 2.77039e-05, -0.000644411, 0.00050398, 0.236866, 0.184919, 0.00911167
55635.407570058006968, 5.83372e-05, -0.000623741, 0.000499675, 0.236103, 0.18752, 0.0113932
55635.440886391006643, 0.00010563, -0.000589053, 0.00045803, 0.230339, 0.198712, 0.0291714
55635.474202725003124, 7.53195e-05, -0.000597391, 0.00042236, 0.230984, 0.202916, 0.0276329
55635.507519001002947, 0.000160198, -0.000557537, 0.000507808, 0.224862, 0.199499, 0.0437114
55635.540835358006007, 0.000162031, -0.000559298, 0.000516724, 0.224286, 0.199237, 0.044825
55635.574301663007645, 9.77733e-05, -0.00059542, 0.000467194, 0.231266, 0.200298, 0.0256563
55635.607618058005755, 0.000128067, -0.000641792, 0.000516066, 0.232713, 0.17834, 0.0262297
55635.64093439100543, 0.000128275, -0.000607899, 0.000601322, 0.233927, 0.154055, 0.0248957
55635.674250691008638, 0.00011375, -0.000598239, 0.000634158, 0.240757, 0.148238, 0.0054547
55635.707567058008863, 0.000125436, -0.000636033, 0.000602639, 0.233873, 0.135733, 0.0300649
55635.740883391008538, 0.000103765, -0.00066421, 0.000565486, 0.234676, 0.122105, 0.0331686
55635.774199696003052, -2.71422e-05, -0.000702988, 0.000515868, 0.258559, 0.117377, -0.0303764
55635.807516058004694, -7.42821e-05, -0.00071235, 0.000520106, 0.271267, 0.119161, -0.0659634
55635.840832363006484, -0.000116744, -0.000723527, 0.000514363, 0.277436, 0.113441, -0.0813301
55635.874148696006159, -9.20392e-05, -0.000796664, 0.000478233, 0.286364, 0.124865, -0.106331
55635.907465058007801, -9.43275e-05, -0.000786343, 0.000475244, 0.28331, 0.11244, -0.0949893
55635.940931391007325, -0.000187741, -0.000716113, 0.00053207, 0.288186, 0.0787214, -0.102891
55635.974247696009115, -0.000234912, -0.000716986, 0.000532719, 0.292094, 0.0831657, -0.115343
55636.00756400100363, -0.000250782, -0.000661014, 0.000585086, 0.292478, 0.0798206, -0.118621
55636.040880358006689, -0.000201, -0.000659021, 0.00059984, 0.28981, 0.0678484, -0.107988
55636.074196724010108, -0.000181479, -0.000663811, 0.00059591, 0.293801, 0.0634499, -0.117782
55636.107513058006589, -0.00013126, -0.000661762, 0.000639079, 0.288601, 0.0458434, -0.0990825
55636.140829391006264, -0.00015987, -0.000653426, 0.000658979, 0.287752, 0.037118, -0.0959153
55636.174145724005939, -0.000141113, -0.00065566, 0.000651789, 0.290315, 0.0333564, -0.102098
55636.207462024009146, -0.000114832, -0.000659097, 0.000666458, 0.291098, 0.0277423, -0.103175
55636.240778391009371, -8.28125e-05, -0.000683345, 0.000677134, 0.291378, 0.0168917, -0.101713
55636.274244696003734, -7.82124e-05, -0.000693407, 0.000678915, 0.291072, 0.0119396, -0.0996628
55636.307561024004826, -7.24954e-05, -0.000713324, 0.000699859, 0.28859, 0.00429519, -0.0918161
55636.340877334005199, -9.31081e-05, -0.000739438, 0.000743667, 0.282759, -0.00311684, -0.0762533
55636.374193724004726, -0.000106936, -0.00072699, 0.000743313, 0.28016, -0.00306534, -0.0703678
55636.407510058008484, -0.000104712, -0.000737774, 0.00077266, 0.278801, -0.0067045, -0.06576
55636.440826362006192, -0.000157227, -0.000734658, 0.000807073, 0.274262, -0.0111737, -0.0531335
55636.474142724007834, -0.000184491, -0.000753077, 0.000862263, 0.273637, -0.0163986, -0.0496605
55636.507459024003765, -0.000206704, -0.000790994, 0.000909337, 0.272865, -0.0229918, -0.0451497
55636.54077539100399, -0.000210475, -0.000789616, 0.00091425, 0.271999, -0.024146, -0.0424453
55636.574091724003665, -0.000233943, -0.00077811, 0.000959259, 0.272021, -0.0249746, -0.0421612
55636.607408029005455, -0.000282645, -0.000789358, 0.00100775, 0.272134, -0.0275716, -0.0414265
55636.640874358003202, -0.000320507, -0.000777108, 0.00106831, 0.276646, -0.0231322, -0.0546431
55636.674190724006621, -0.000330451, -0.000746707, 0.00106535, 0.271288, -0.0224608, -0.0405064
55636.70750700100325, -0.000363548, -0.000717287, 0.00108615, 0.267172, -0.0212267, -0.0297194
55636.740823391010053, -0.000379723, -0.000703735, 0.00114151, 0.269633, -0.0178591, -0.0371456
55636.774139724009729, -0.000372074, -0.000680897, 0.0012487, 0.275412, -0.00865432, -0.0550874
55636.807456086004095, -0.000446193, -0.000655394, 0.00133781, 0.280325, 0.004595, -0.0719207
55636.840772391005885, -0.000474533, -0.000670922, 0.00141841, 0.28592, 0.0124759, -0.0890516
55636.874088696007675, -0.00044907, -0.000661605, 0.00146887, 0.284036, 0.0223798, -0.0861928
55636.907405058009317, -0.000347856, -0.000630719, 0.00148414, 0.27536, 0.0446625, -0.0682009
55636.940721391008992, -0.000320989, -0.00062469, 0.00148904, 0.271613, 0.0528728, -0.0598632
55636.974187696003355, -0.000304134, -0.00062207, 0.0015008, 0.268477, 0.0579424, -0.0521639
55637.007504058004997, -0.000205976, -0.000626829, 0.00152024, 0.260901, 0.0811262, -0.0371487
55637.040820391004672, -0.000254056, -0.000693501, 0.00160695, 0.265062, 0.123688, -0.0603471
55637.074136724004347, -0.00023114, -0.000741802, 0.00165665, 0.263902, 0.155187, -0.0655058
55637.107453029006138, -0.000170416, -0.000759557, 0.00165943, 0.257393, 0.173247, -0.0518732
55637.140769358004036, -0.000115145, -0.000775253, 0.00163112, 0.250547, 0.186213, -0.0363346
55637.174085691003711, -0.00010161, -0.000816249, 0.00166016, 0.250143, 0.208121, -0.0411573
55637.207402029009245, -8.64553e-05, -0.000870249, 0.00168145, 0.249523, 0.236088, -0.0471735
55637.240718358007143, -0.000100771, -0.000889386, 0.00167436, 0.24954, 0.244029, -0.049687
55637.274034724003286, -0.000159109, -0.000939497, 0.00172041, 0.255113, 0.268452, -0.0721201
55637.307351029005076, -0.000141094, -0.000946608, 0.00170937, 0.252994, 0.271596, -0.0670205
55637.340817358010099, -0.00018714, -0.000960984, 0.0017414, 0.258339, 0.28176, -0.0850668
55637.374133724006242, -0.00017205, -0.000958645, 0.00173716, 0.258036, 0.279909, -0.0840631
55637.407450058009999, -0.00014627, -0.000947425, 0.00170985, 0.257188, 0.272549, -0.0804679
55637.440766358005931, -0.000115009, -0.000938946, 0.00168087, 0.254324, 0.260503, -0.0697508
55637.474082691005606, -0.000131972, -0.000950373, 0.00166471, 0.25226, 0.261832, -0.0642775
55637.507399029003864, -0.000140172, -0.000967452, 0.00164152, 0.251127, 0.264978, -0.0626156
55637.540715391005506, -0.0001449, -0.000966334, 0.00163474, 0.250404, 0.258379, -0.0589493
55637.574031691008713, -0.000145993, -0.000969245, 0.00163623, 0.249449, 0.253131, -0.0547821
55637.607348058008938, -0.000121534, -0.0010155, 0.00161508, 0.247033, 0.259051, -0.0509902
55637.640664391008613, -0.000107113, -0.00105294, 0.0015916, 0.245528, 0.266489, -0.0500136
55637.674130724008137, -9.06e-05, -0.0011304, 0.00153418, 0.243451, 0.285498, -0.0520632
55637.707447024004068, -3.72537e-05, -0.00117314, 0.00152895, 0.242633, 0.288583, -0.0520387
55637.740763391004293, -6.15301e-06, -0.00126167, 0.00145742, 0.239747, 0.317148, -0.0545986
55637.774079691007501, 1.3402e-05, -0.00132725, 0.00144777, 0.237402, 0.329447, -0.0526596
55637.807396029005758, 3.9872e-05, -0.00142064, 0.0014409, 0.23405, 0.347016, -0.0497924
55637.840712358003657, 6.77319e-05, -0.00148838, 0.00145565, 0.231958, 0.357086, -0.0477592
55637.874028696009191, 0.000140593, -0.00178438, 0.0015002, 0.224838, 0.393624, -0.0419179
55637.907345096005884, 0.000155534, -0.00184046, 0.00152188, 0.224456, 0.396003, -0.0418868
55637.940661391003232, 0.000178281, -0.00195203, 0.0015102, 0.221951, 0.409628, -0.0399242
55637.973977724002907, 0.000182233, -0.00201675, 0.00151591, 0.220343, 0.419078, -0.0389288
55638.007294029004697, 0.000206573, -0.00216912, 0.00159758, 0.217301, 0.441411, -0.0389619
55638.040760391006188, 0.000226896, -0.00224003, 0.00161625, 0.215328, 0.4535, -0.038041
55638.074076724005863, 0.000220353, -0.00238029, 0.00166701, 0.211537, 0.478495, -0.0372207
55638.107393057005538, 0.000238883, -0.00245685, 0.00168399, 0.209305, 0.491289, -0.0359003
55638.140709362007328, 0.000254057, -0.00249431, 0.00170708, 0.206683, 0.504888, -0.0343089
55638.174025691005227, 0.000265858, -0.00256917, 0.00178019, 0.205184, 0.517884, -0.0356643
55638.207342057008645, 0.000281972, -0.00258855, 0.00180356, 0.204589, 0.522054, -0.0358053
55638.240658357004577, 0.00026734, -0.0025932, 0.00182926, 0.203063, 0.529174, -0.0351066
55638.273974724004802, 0.000270757, -0.00257702, 0.00185707, 0.202096, 0.532791, -0.0346548
55638.307291024008009, 0.000260314, -0.00254781, 0.00188207, 0.202785, 0.530913, -0.0363008
55638.340607391008234, 0.000256302, -0.00253123, 0.00191404, 0.203256, 0.530421, -0.0378804
55638.374073724007758, 0.000277448, -0.00256679, 0.00195836, 0.201994, 0.536319, -0.037168
55638.407390029009548, 0.000291571, -0.00256169, 0.00200548, 0.200765, 0.540027, -0.0362235
55638.440706391003914, 0.000306061, -0.00255714, 0.00205738, 0.200158, 0.542321, -0.0362646
55638.474022724003589, 0.00032023, -0.0025368, 0.00212908, 0.199885, 0.543471, -0.0370606
55638.507339062009123, 0.000329371, -0.00253275, 0.0021679, 0.199466, 0.544412, -0.0368605
55638.540655367003637, 0.000356065, -0.00253293, 0.00223609, 0.199907, 0.545605, -0.0389595
55638.573971724006697, 0.000365559, -0.00251826, 0.00226206, 0.199834, 0.545374, -0.0390635
55638.60728803400707, 0.000378045, -0.00248098, 0.00226723, 0.199174, 0.543396, -0.0371472
55638.640604391010129, 0.000415424, -0.00246266, 0.00231053, 0.198906, 0.54319, -0.0367951
55638.67392069100606, 0.000452092, -0.00243317, 0.00236713, 0.198778, 0.542486, -0.0367679
55638.707387029004167, 0.000476927, -0.00241073, 0.00237927, 0.196862, 0.539913, -0.0313714
55638.740703391005809, 0.000536122, -0.0023636, 0.00245784, 0.197599, 0.540476, -0.0338245
55638.774019724005484, 0.000614758, -0.00229162, 0.00254646, 0.198083, 0.540286, -0.0353572
55638.807336057005159, 0.000688937, -0.00223155, 0.00261788, 0.19842, 0.540949, -0.0365653
55638.840652338003565, 0.000732037, -0.00218297, 0.00267525, 0.198791, 0.54263, -0.0380433
55638.873968724008591, 0.000777306, -0.00216075, 0.00272111, 0.199088, 0.544828, -0.0393373
55638.907285057008266, 0.000831768, -0.00214593, 0.002763, 0.199164, 0.547876, -0.0402463
55638.940601329006313, 0.000941076, -0.00208877, 0.00282157, 0.198622, 0.552751, -0.0399423
55638.973917691007955, 0.000948004, -0.00209568, 0.0028294, 0.199117, 0.555813, -0.0421167
55639.007234029006213, 0.000952171, -0.00209041, 0.00282847, 0.198864, 0.556968, -0.0416766
55639.040550391007855, 0.000948089, -0.00208692, 0.00282425, 0.199051, 0.560102, -0.0431361
55639.074016695005412, 0.000891037, -0.00209694, 0.00279426, 0.199935, 0.559263, -0.0457504
55639.10733302400331, 0.000846919, -0.0020955, 0.00276117, 0.200512, 0.553794, -0.0465592
55639.140649343004043, 0.000816601, -0.00209073, 0.00273395, 0.200938, 0.548286, -0.0469495
55639.17396572400321, 0.000764878, -0.00208347, 0.00269888, 0.201809, 0.544447, -0.0490408
55639.207282029005, 0.000735659, -0.00206999, 0.00266642, 0.201678, 0.541884, -0.0488043
55639.240598391006642, 0.000735245, -0.00207102, 0.00267229, 0.201622, 0.542484, -0.0487001
55639.273914695004351, 0.00071018, -0.00206516, 0.00265126, 0.202586, 0.537388, -0.0508587
55639.307231057005993, 0.000727981, -0.00206992, 0.00264218, 0.202305, 0.533833, -0.0500084
55639.34054739100975, 0.000745767, -0.00207545, 0.00262579, 0.202496, 0.530321, -0.05072
55639.373863691005681, 0.000754085, -0.00207475, 0.00261922, 0.202601, 0.52871, -0.0512221
55639.407330024005205, 0.000760887, -0.00208817, 0.00261157, 0.201566, 0.530158, -0.0496803
55639.44064639100543, 0.000731881, -0.00209665, 0.00254919, 0.200581, 0.534911, -0.050702
55639.47396266200667, 0.000747155, -0.00210806, 0.00254938, 0.200071, 0.536628, -0.0502869
55639.507279000004928, 0.00075641, -0.00213353, 0.00253706, 0.199688, 0.537945, -0.0503626
55639.54059536200657, 0.000710778, -0.00216823, 0.00242865, 0.197268, 0.551408, -0.0505497
55639.573911691004469, 0.000759714, -0.00224744, 0.00242454, 0.194526, 0.565599, -0.0491701
55639.607228057007887, 0.000764794, -0.00226852, 0.00241002, 0.194052, 0.568847, -0.0492774
55639.640544357003819, 0.000749565, -0.00232252, 0.00236354, 0.192295, 0.578242, -0.0485079
55639.673860691007576, 0.000744439, -0.00236285, 0.0023417, 0.191165, 0.584658, -0.0480405
55639.707177029005834, 0.000767092, -0.00246386, 0.0023272, 0.189397, 0.595576, -0.0474329
55639.740493357006926, 0.000777713, -0.00256504, 0.00231504, 0.187591, 0.606687, -0.0466629
55639.773959724007, 0.000811593, -0.00269847, 0.00230295, 0.18553, 0.619569, -0.0456144
55639.807276024002931, 0.000831503, -0.00274643, 0.00231567, 0.185146, 0.623167, -0.04573
55639.840592357009882, 0.000819678, -0.002782, 0.00229816, 0.183464, 0.63113, -0.0443387
55639.873908724010107, 0.000828656, -0.00288236, 0.00228841, 0.18123, 0.644154, -0.0429289
55639.90722500000993, 0.000825872, -0.00295746, 0.0022685, 0.179089, 0.654874, -0.0410171
55639.940541391006263, 0.000801861, -0.00299992, 0.00222313, 0.17663, 0.663152, -0.0374704
55639.973857724005939, 0.000801505, -0.00301653, 0.00222642, 0.175196, 0.669004, -0.0363164
55640.007174000005762, 0.000807961, -0.00300405, 0.00224353, 0.174412, 0.671693, -0.0360367
55640.040490391009371, 0.000793166, -0.00297581, 0.00223611, 0.17396, 0.671082, -0.0351674
55640.073807291009871, 0.000811209, -0.00297354, 0.0022622, 0.172956, 0.674537, -0.0346304
55640.107273067005735, 0.000830479, -0.00297918, 0.00226843, 0.172116, 0.676756, -0.0335411
55640.140589357004501, 0.000836854, -0.00301579, 0.00229646, 0.168627, 0.686394, -0.0293674
55640.173906176009041, 0.000841973, -0.00298169, 0.00233545, 0.168322, 0.686136, -0.0297694
55640.207222029006516, 0.00085578, -0.00296814, 0.0023509, 0.168515, 0.685458, -0.0303216
55640.240538362006191, 0.000903738, -0.00293757, 0.00239746, 0.168994, 0.684226, -0.0318608
55640.273854724007833, 0.000924149, -0.00292063, 0.00243303, 0.168751, 0.684002, -0.0318942
55640.307171024003765, 0.000957124, -0.00284521, 0.0024789, 0.168382, 0.679628, -0.0309757
55640.340487362009299, 0.000976723, -0.00283358, 0.00249845, 0.168433, 0.679311, -0.0313026
55640.373803695008974, 0.000999317, -0.00281198, 0.00250437, 0.168537, 0.677934, -0.0312824
55640.40712005700334, 0.00100034, -0.00281943, 0.00250125, 0.168617, 0.678716, -0.0316131
55640.440436390003015, 0.00102443, -0.00278732, 0.00253625, 0.169596, 0.67904, -0.0345612
55640.473903290003364, 0.0010949, -0.00277006, 0.00258796, 0.170506, 0.681334, -0.0377541
55640.507219029008411, 0.00112996, -0.0026987, 0.00262134, 0.171146, 0.679386, -0.0392015
55640.540535362008086, 0.00116209, -0.00265708, 0.00263672, 0.171176, 0.677756, -0.0389624
55640.573851724009728, 0.001163, -0.00265799, 0.00263726, 0.171205, 0.678015, -0.0390923
55640.607167995003692, 0.0011923, -0.00263203, 0.00264961, 0.171046, 0.676992, -0.0383936
55640.640484390009078, 0.00116702, -0.00267201, 0.00264303, 0.171617, 0.679983, -0.0407859
55640.673800733005919, 0.00115743, -0.00268362, 0.00264562, 0.171815, 0.681529, -0.0416899
55640.707117057005235, 0.0011065, -0.00267174, 0.00262248, 0.172279, 0.683987, -0.0437233
55640.740433362007025, 0.00108973, -0.00263664, 0.00258724, 0.171977, 0.681417, -0.0424715
55640.77374968600634, 0.0010357, -0.00262243, 0.00255203, 0.172511, 0.681712, -0.0444142
55640.807216028006223, 0.000981083, -0.00260334, 0.00251254, 0.172516, 0.679123, -0.0441965
55640.840532390007866, 0.000932072, -0.00259878, 0.00249263, 0.172783, 0.679424, -0.0452418
55640.873848705006822, 0.000887482, -0.00261503, 0.00248659, 0.173289, 0.679213, -0.0466132
55640.907165057004022, 0.000857826, -0.00261231, 0.00245983, 0.173597, 0.675346, -0.0470987
55640.940481362005812, 0.000810973, -0.00261186, 0.00243072, 0.173929, 0.670802, -0.0474289
55640.973800695006503, 0.000811364, -0.00261011, 0.00241076, 0.174463, 0.666428, -0.0484644
55641.007114028005162, 0.000749576, -0.00258385, 0.00234472, 0.174827, 0.662276, -0.0498901
55641.040430390006804, 0.000754241, -0.00258379, 0.00231267, 0.174749, 0.656037, -0.0494139
55641.073746724003286, 0.000725667, -0.00257443, 0.00225838, 0.174712, 0.652102, -0.0498527
55641.10706302800827, 0.000691398, -0.00256678, 0.00223252, 0.17493, 0.650781, -0.0506616
55641.140379357006168, 0.000616603, -0.00255048, 0.0021657, 0.17562, 0.647717, -0.0530919
55641.173845690005692, 0.000634149, -0.00256314, 0.00215263, 0.175282, 0.646893, -0.052894
55641.207162057005917, 0.000619556, -0.00256917, 0.00213359, 0.175011, 0.647645, -0.0529765
55641.240478390005592, 0.000614821, -0.00259085, 0.00210442, 0.174095, 0.650204, -0.0524386
55641.273794695007382, 0.00061922, -0.00261904, 0.00207465, 0.17297, 0.654158, -0.0518173
55641.307111057009024, 0.000606758, -0.00265161, 0.00202202, 0.172064, 0.657257, -0.0517342
55641.340427362003538, 0.000577131, -0.00265478, 0.00199193, 0.171989, 0.657379, -0.0518435
55641.373743695003213, 0.000559436, -0.00267057, 0.0019664, 0.171217, 0.661093, -0.0513434
55641.407060024008388, 0.000530772, -0.00268811, 0.00192828, 0.170588, 0.663981, -0.0508061
55641.440376362006646, 0.000493407, -0.00271592, 0.00187757, 0.169015, 0.672156, -0.0496141
55641.473692695006321, 0.00047552, -0.00273991, 0.00184128, 0.167781, 0.678584, -0.0485867
55641.507159028005844, 0.000431614, -0.00276834, 0.001776, 0.166213, 0.685667, -0.0466694
55641.540475390007487, 0.000365421, -0.00292758, 0.00163581, 0.161224, 0.712187, -0.0415671
55641.573791695009277, 0.000349, -0.00295374, 0.00160801, 0.160118, 0.717833, -0.0403834
55641.607108028008952, 0.000334056, -0.00295654, 0.00158389, 0.159618, 0.719219, -0.039335
55641.640424390003318, 0.000332739, -0.00300877, 0.00156641, 0.158611, 0.725546, -0.0383825
55641.673740695005108, 0.000312304, -0.00303097, 0.00155084, 0.157608, 0.730921, -0.0374542
55641.707057000006898, 0.000299242, -0.00303971, 0.00156155, 0.15714, 0.734811, -0.0379252
55641.74037336200854, 0.000306936, -0.00307355, 0.00158207, 0.15628, 0.742458, -0.0387694
55641.773689724002907, 0.000305468, -0.00307926, 0.00158367, 0.155903, 0.744755, -0.0387449
55641.807006057009858, 0.000321388, -0.00308933, 0.00160115, 0.155437, 0.748828, -0.0394727
55641.840322390009533, 0.000333421, -0.00309179, 0.0016487, 0.155294, 0.753337, -0.0421557
55641.873788724005863, 0.000346385, -0.0031274, 0.00168001, 0.154618, 0.76048, -0.0435573
55641.907105057005538, 0.000363358, -0.0031184, 0.00171111, 0.154803, 0.761213, -0.0452401
55641.940421390005213, 0.000373322, -0.00311893, 0.00171021, 0.154482, 0.762173, -0.044769
55641.973737695007003, 0.000385544, -0.00311261, 0.00170749, 0.154753, 0.760818, -0.0448078
55642.007054028006678, 0.000429948, -0.00306054, 0.00173333, 0.155445, 0.756232, -0.0460684
55642.040370357004576, 0.000453837, -0.00304444, 0.00175503, 0.155633, 0.755511, -0.0469469
55642.073686724004801, 0.000455628, -0.00303787, 0.00176258, 0.155701, 0.755152, -0.0473099
55642.107003028009785, 0.000474517, -0.00301865, 0.00178574, 0.156084, 0.75378, -0.0485024
55642.1403193330043, 0.000499492, -0.00298606, 0.00180385, 0.157266, 0.750357, -0.0508065
55642.173635690007359, 0.000524566, -0.00294976, 0.00183114, 0.158519, 0.747309, -0.0536701
55642.207102057007432, 0.000536877, -0.00294989, 0.00184074, 0.158313, 0.747557, -0.0534317
55642.240418390007108, 0.000550357, -0.00291112, 0.00185192, 0.158717, 0.74427, -0.0540217
55642.273734690003039, 0.000519456, -0.00291151, 0.00181759, 0.158919, 0.743753, -0.0538332
55642.307051024006796, 0.000551238, -0.0028646, 0.00183778, 0.159705, 0.740428, -0.0553746
55642.340367333003087, 0.000568905, -0.00288357, 0.00184108, 0.1594, 0.741945, -0.0548295
55642.373683709003672, 0.000567759, -0.00288147, 0.00182954, 0.1596, 0.741974, -0.0552224
55642.407000057006371, 0.000551013, -0.00290324, 0.00182701, 0.160238, 0.744872, -0.0574048
55642.440316390006046, 0.000526157, -0.00289961, 0.00180664, 0.160495, 0.744479, -0.0579305
55642.473632690009254, 0.000480715, -0.00289275, 0.00176817, 0.160673, 0.743247, -0.0580711
55642.506949495007575, 0.000446737, -0.00289919, 0.00173124, 0.160476, 0.742278, -0.0573525
55642.540415362003841, 0.000387892, -0.00293287, 0.00170053, 0.16075, 0.744038, -0.0584152
55642.573731723008677, 0.000330068, -0.00295378, 0.00166477, 0.160957, 0.744502, -0.0590978
55642.607048023004609, 0.000273117, -0.00295177, 0.00162303, 0.161184, 0.743249, -0.0596379
55642.640364362006949, 0.00022952, -0.00295909, 0.00158413, 0.161154, 0.742183, -0.0595881
55642.673680723004509, 0.000204924, -0.00296877, 0.00156698, 0.161129, 0.741901, -0.0595933
55642.706997057008266, 0.000143541, -0.00297842, 0.00151304, 0.161325, 0.740461, -0.0602693
55642.740313357004197, 0.000105575, -0.00298683, 0.00146711, 0.160969, 0.739171, -0.0597338
55642.773629695009731, 7.35109e-05, -0.00298782, 0.00142427, 0.160727, 0.737932, -0.0595423
55642.806946057004097, 5.91454e-05, -0.00297813, 0.00139767, 0.160602, 0.737075, -0.0594692
55642.840262357007305, 6.30429e-05, -0.00299526, 0.00138244, 0.159918, 0.737585, -0.058431
55642.873578695005563, 6.25058e-05, -0.00303706, 0.00135958, 0.159204, 0.738617, -0.0575178
55642.907045028005086, 6.12968e-05, -0.00303629, 0.00134768, 0.158934, 0.738739, -0.0572404
55642.940361362008844, 3.70384e-05, -0.0030467, 0.00132217, 0.158504, 0.739265, -0.0568724
55642.973677695008519, 1.84236e-05, -0.00307991, 0.00129204, 0.157521, 0.741431, -0.0558564
55643.00699399500445, 2.78631e-05, -0.00310759, 0.00127989, 0.156503, 0.744277, -0.0547889
55643.040310390009836, 1.78553e-05, -0.00310524, 0.00126973, 0.156134, 0.744967, -0.054405
55643.073626723009511, -6.56386e-06, -0.00312201, 0.00123482, 0.155485, 0.746481, -0.053677
55643.106943061007769, -3.58417e-05, -0.00312522, 0.00117845, 0.154378, 0.748455, -0.0523768
55643.1402593610037, -5.12431e-05, -0.00314083, 0.00115577, 0.153879, 0.749896, -0.0517795
55643.173575723005342, -8.8515e-05, -0.00318023, 0.00111115, 0.153069, 0.752566, -0.0505757
55643.2068920610036, -9.31634e-05, -0.00319414, 0.00109894, 0.152491, 0.75452, -0.049906
55643.240358395007206, -0.000143661, -0.00319935, 0.00106361, 0.151464, 0.756593, -0.0484043
55643.273674723008298, -0.000165374, -0.00323404, 0.00102684, 0.150168, 0.760576, -0.0463725
55643.306991028010088, -0.000165345, -0.003242, 0.000988636, 0.14922, 0.76204, -0.0442455
55643.340307919002953, -0.00016078, -0.00325058, 0.000971777, 0.148453, 0.763765, -0.0429117
55643.37362372300413, -0.000120967, -0.00324288, 0.000979836, 0.148286, 0.763896, -0.0427085
55643.406940057007887, -0.000109221, -0.00324626, 0.000993384, 0.148288, 0.764629, -0.0432807
55643.440256328009127, -0.000108203, -0.00323588, 0.000998714, 0.148345, 0.764024, -0.0435338
55643.473572723007237, -0.000111986, -0.00321705, 0.000994343, 0.147857, 0.762868, -0.0424636
55643.506889009004226, -8.81253e-05, -0.00321254, 0.00100738, 0.147334, 0.76291, -0.0417327
55643.540205361008702, -7.38086e-05, -0.00321129, 0.00101051, 0.146951, 0.762898, -0.0410095
55643.573521723003068, -6.24884e-05, -0.00319964, 0.00100991, 0.146532, 0.761696, -0.0398233
55643.606988057006674, -3.73494e-05, -0.00317546, 0.00100207, 0.146568, 0.759637, -0.0391957
55643.640304361004382, -2.07904e-05, -0.00313634, 0.00100633, 0.146535, 0.756193, -0.038555
55643.673620723006024, -2.26692e-05, -0.003118, 0.000991311, 0.146333, 0.753989, -0.0373373
55643.706937028007815, -1.25507e-05, -0.00313043, 0.00100123, 0.146199, 0.755028, -0.0373785
55643.74025336100749, 1.27857e-06, -0.00312275, 0.00100581, 0.146049, 0.754003, -0.0368505
55643.773569723009132, 3.31203e-05, -0.00312168, 0.00101206, 0.145306, 0.751913, -0.0343901
55643.806886057005613, 4.48866e-05, -0.00310666, 0.00100903, 0.144855, 0.749027, -0.0324819
55643.840202390005288, 2.40117e-05, -0.00313329, 0.0010041, 0.14543, 0.753286, -0.034958
55643.873518695007078, 4.57776e-05, -0.00314019, 0.00101964, 0.145838, 0.755628, -0.0367282
55643.906835023008171, 0.000153801, -0.00309034, 0.00107275, 0.146145, 0.753819, -0.0375656
55643.940301390008244, 0.000193282, -0.00305908, 0.00109473, 0.14654, 0.753087, -0.0387276
55643.973617723007919, 0.000221938, -0.00304518, 0.00111585, 0.146518, 0.752553, -0.038669
55644.006934018005268, 0.000239274, -0.00302939, 0.00111757, 0.146672, 0.752087, -0.0390193
55644.040250357007608, 0.000280396, -0.00302412, 0.00113527, 0.146754, 0.752667, -0.0394221
55644.073566695005866, 0.00028899, -0.00301947, 0.00113391, 0.146816, 0.752494, -0.0395597
55644.106885799003066, 0.000287397, -0.00302419, 0.00111994, 0.146855, 0.752202, -0.0396156
55644.140199361005216, 0.000344053, -0.00301293, 0.00113647, 0.146815, 0.752128, -0.0394661
55644.173515723006858, 0.000408789, -0.00299604, 0.00114073, 0.146375, 0.75149, -0.0380488
55644.206832057003339, 0.000423875, -0.00299988, 0.00114135, 0.146127, 0.751325, -0.0372858
55644.240148361008323, 0.000499913, -0.00299889, 0.00116006, 0.145496, 0.75165, -0.0354661
55644.273464723009965, 0.000518844, -0.00298524, 0.00115237, 0.145136, 0.751452, -0.0345517
55644.306931028004328, 0.000594548, -0.00296409, 0.00115676, 0.143942, 0.752011, -0.0312953
55644.340248152009735, 0.000634814, -0.00295938, 0.00116578, 0.143194, 0.752906, -0.0293502
55644.37356370400812, 0.000694783, -0.00294641, 0.00117929, 0.142133, 0.755035, -0.0266977
55644.406880023008853, 0.000707646, -0.00296187, 0.0011611, 0.140981, 0.755551, -0.024031
55644.440196361007111, 0.000806198, -0.00296051, 0.00117891, 0.139868, 0.75685, -0.021111
55644.473512723008753, 0.000855879, -0.00296779, 0.00117748, 0.138906, 0.757571, -0.0187754
55644.506828999008576, 0.000841492, -0.00297046, 0.00116415, 0.138971, 0.757326, -0.0192723
55644.540145357008441, 0.000929952, -0.00299231, 0.001182, 0.136824, 0.761079, -0.013987
55644.573461690008116, 0.000944712, -0.0029893, 0.00118501, 0.136568, 0.761801, -0.013415
55644.606778028006374, 0.000969259, -0.00299239, 0.00119113, 0.136245, 0.762234, -0.0125245
55644.640244390007865, 0.00100879, -0.00299173, 0.00119857, 0.135637, 0.763615, -0.0110238
55644.67356072300754, 0.00105824, -0.00299203, 0.00119796, 0.134375, 0.766332, -0.00823633
55644.70687702800933, 0.00108831, -0.00298279, 0.00120306, 0.133187, 0.769999, -0.00547156
55644.740193361009005, 0.00109779, -0.00297933, 0.00119801, 0.132585, 0.771608, -0.00418953
55644.773509723003372, 0.00114247, -0.0029746, 0.00120544, 0.131526, 0.775013, -0.00173163
55644.806826028005162, 0.0011888, -0.00297088, 0.00121067, 0.130629, 0.777567, 0.000142037
55644.840142380009638, 0.00123994, -0.00296851, 0.00122256, 0.13, 0.779073, 0.00179054
55644.873458695008594, 0.00127952, -0.00297053, 0.00122189, 0.129298, 0.781053, 0.00302106
55644.906774999006302, 0.00137436, -0.00297387, 0.00122796, 0.128237, 0.784072, 0.00497469
55644.940091352007585, 0.00140599, -0.0029834, 0.00122706, 0.127481, 0.78512, 0.00654165
55644.973407695004425, 0.00142903, -0.00299664, 0.0012282, 0.126935, 0.784474, 0.00798767
55645.006874023005366, 0.00149534, -0.00300525, 0.00125694, 0.12623, 0.783455, 0.0112418
55645.040190328007156, 0.00157101, -0.00300732, 0.00129266, 0.125714, 0.78246, 0.0143903
55645.073506728003849, 0.00161902, -0.00301573, 0.0013076, 0.125109, 0.782589, 0.0163645
55645.106823028007057, 0.00169784, -0.00302617, 0.00132506, 0.123966, 0.785011, 0.0194331
55645.140139375005674, 0.00173978, -0.00303483, 0.00133531, 0.123101, 0.788317, 0.0215096
55645.17345569000463, 0.00176826, -0.00303785, 0.00134642, 0.122692, 0.790662, 0.022775
55645.206772023004305, 0.0018117, -0.00305551, 0.00135353, 0.121513, 0.794154, 0.0254214
55645.24008839000453, 0.00185017, -0.00307551, 0.00135477, 0.120445, 0.799254, 0.02702
55645.273404723004205, 0.0018545, -0.00308825, 0.00135038, 0.119853, 0.802018, 0.0277718
55645.306721023007412, 0.00186189, -0.00310725, 0.00134713, 0.119021, 0.805615, 0.0290554
55645.340187333007634, 0.00187153, -0.00312386, 0.00134927, 0.118209, 0.806925, 0.0308959
55645.373503723007161, 0.00187418, -0.00313539, 0.00135099, 0.11752, 0.809065, 0.0328774
55645.406820023003093, 0.00187752, -0.00313682, 0.00135501, 0.117376, 0.808152, 0.033737
55645.440136390003318, 0.00189184, -0.00313882, 0.00135984, 0.117217, 0.808512, 0.0343115
55645.473452694008301, 0.00188819, -0.00314025, 0.00135385, 0.117006, 0.809843, 0.0341876
55645.506769028004783, 0.00178934, -0.00316928, 0.0013287, 0.116073, 0.817404, 0.0351145
55645.540086956003506, 0.00157784, -0.00322062, 0.00128415, 0.1146, 0.832651, 0.0362603
55645.573401690009632, 0.0015952, -0.00323163, 0.00128939, 0.114093, 0.832119, 0.0375513
55645.606718056005775, 0.00158322, -0.00323171, 0.00128281, 0.114117, 0.830907, 0.0370739
55645.640034361007565, 0.00156806, -0.00322135, 0.00128022, 0.114431, 0.826082, 0.0367092
55645.673500694007089, 0.0015405, -0.00320914, 0.00127476, 0.114912, 0.820424, 0.0358574
55645.706817056008731, 0.00151901, -0.00320049, 0.00127203, 0.115075, 0.815623, 0.0361323
55645.740133356004662, 0.0014765, -0.00319301, 0.0012617, 0.115531, 0.809094, 0.0356621
55645.773449661006453, 0.00145476, -0.00317284, 0.00125681, 0.116399, 0.80055, 0.0345687
55645.806765994006128, 0.00126137, -0.00316441, 0.00122338, 0.116538, 0.790773, 0.0365528
55645.84008239000832, 0.00123805, -0.0031425, 0.00121714, 0.116954, 0.78368, 0.0370896
55645.873398723007995, 0.00124008, -0.00312729, 0.00122049, 0.117525, 0.77936, 0.0365786
55645.906715185003122, 0.00116775, -0.00311381, 0.0012046, 0.117991, 0.77451, 0.0361365
55645.940031394005928, 0.00111344, -0.00311283, 0.00118967, 0.117733, 0.774577, 0.0363523
55645.973347690007358, 0.00109267, -0.00310896, 0.00118323, 0.117687, 0.77356, 0.0365257
55646.006664028005616, 0.0011417, -0.00310001, 0.00119908, 0.118132, 0.771323, 0.0358982
55646.04013036100514, 0.001172, -0.00308206, 0.00121582, 0.118973, 0.76629, 0.0349665
55646.073446694004815, 0.0011209, -0.00306919, 0.00120161, 0.118943, 0.758492, 0.036664
55646.106763056006457, 0.00109205, -0.00306836, 0.00119321, 0.118596, 0.756285, 0.0380582
55646.140079328004504, 0.00107638, -0.00306323, 0.00118278, 0.118635, 0.751726, 0.0387275
55646.173395694007922, 0.00105829, -0.00305697, 0.00117783, 0.118717, 0.748406, 0.0392655
55646.206712028004404, 0.00102421, -0.0030565, 0.00117502, 0.118264, 0.744747, 0.0418769
55646.240028361004079, 0.000983635, -0.00305617, 0.00116268, 0.117893, 0.742009, 0.0437522
55646.273344694003754, 0.000951175, -0.00305336, 0.00115647, 0.117668, 0.736544, 0.0460558
55646.306661028007511, 0.00091621, -0.00304362, 0.00114863, 0.117868, 0.730272, 0.0472302
55646.339977361007186, 0.000960445, -0.00303467, 0.00117256, 0.118005, 0.725126, 0.0487485
55646.373443690004933, 0.00100773, -0.00303149, 0.0011974, 0.117946, 0.722319, 0.050128
55646.406760023004608, 0.00103941, -0.00303432, 0.00121344, 0.117736, 0.720151, 0.0515689
55646.440076390004833, 0.00109641, -0.00303583, 0.00123315, 0.117437, 0.718904, 0.0530527
55646.473392723004508, 0.00117755, -0.00303006, 0.00126063, 0.117276, 0.717114, 0.0543712
55646.506709023007716, 0.00124574, -0.0030187, 0.00128094, 0.117312, 0.713837, 0.0554519
55646.540025390007941, 0.00130677, -0.00300798, 0.00129872, 0.117358, 0.710885, 0.0563951
55646.573341694005649, 0.0013644, -0.00301201, 0.0013157, 0.117056, 0.709939, 0.0576621
55646.606657994008856, 0.00144292, -0.00302354, 0.00133799, 0.116739, 0.708425, 0.0590794
55646.639974361009081, 0.00152497, -0.00303369, 0.00136558, 0.116743, 0.7072, 0.0595583
55646.673290694008756, 0.00157891, -0.00304764, 0.00138486, 0.1165, 0.705694, 0.0608421
55646.706607028005237, 0.00162237, -0.00305702, 0.00139955, 0.116371, 0.703699, 0.06188
55646.740073356006178, 0.0017047, -0.0030634, 0.00143354, 0.116254, 0.703376, 0.0625569
55646.773389723006403, 0.00181382, -0.00307056, 0.00147259, 0.11615, 0.702948, 0.0631347
55646.806706056006078, 0.00195893, -0.00308061, 0.0015301, 0.116145, 0.703438, 0.0632646
55646.840022804004548, 0.00204363, -0.00308934, 0.00157032, 0.116323, 0.702576, 0.0631779
55646.87333872300951, 0.0020896, -0.00309741, 0.00159802, 0.116367, 0.702088, 0.0633331
55646.906655028004025, 0.00209599, -0.00310623, 0.00161316, 0.116281, 0.701596, 0.0638084
55646.9399713610037, 0.00219717, -0.00310629, 0.00164943, 0.116283, 0.700876, 0.0641525
55646.973287723005342, 0.00232903, -0.00310147, 0.00169201, 0.116098, 0.701581, 0.0647171
55647.006604023008549, 0.00240991, -0.00309636, 0.00172126, 0.116088, 0.702076, 0.064736
55647.039920389004692, 0.00250143, -0.0030912, 0.00174554, 0.116107, 0.701732, 0.064863
55647.073386728006881, 0.00254968, -0.00309395, 0.00175566, 0.116038, 0.701359, 0.0652179
55647.106703056007973, 0.00254212, -0.00310285, 0.00174758, 0.115981, 0.700789, 0.0655424
55647.140019361009763, 0.00255388, -0.00311444, 0.00174235, 0.115733, 0.700679, 0.0662479
55647.173335666004277, 0.00252647, -0.00312666, 0.0017318, 0.115568, 0.700358, 0.0666889
55647.206652023007337, 0.00246529, -0.00313511, 0.00171846, 0.115518, 0.699885, 0.0666876
55647.239968389003479, 0.00240144, -0.00314288, 0.00170938, 0.11557, 0.699257, 0.0664285
55647.273284723007237, 0.00237293, -0.0031471, 0.00169909, 0.115602, 0.698943, 0.066209
55647.306601023003168, 0.00232613, -0.00315551, 0.00166625, 0.115668, 0.697604, 0.0659739
55647.339917361008702, 0.00230955, -0.00316646, 0.00164458, 0.115347, 0.698157, 0.0664218
55647.373233694008377, 0.00228833, -0.00317093, 0.0016263, 0.115213, 0.69865, 0.0664318
55647.406550056010019, 0.00223111, -0.00318102, 0.00159626, 0.115053, 0.698879, 0.0666154
55647.440016389009543, 0.00215585, -0.00319639, 0.00156668, 0.114747, 0.699491, 0.0671928
55647.473332723006024, 0.00206072, -0.00320689, 0.0015325, 0.114654, 0.699755, 0.0673458
55647.506649056005699, 0.00199825, -0.00320838, 0.00150076, 0.114785, 0.698786, 0.0671227
55647.539965389005374, 0.00193293, -0.00321182, 0.00147468, 0.114645, 0.69929, 0.0673832
55647.573281723009131, 0.00186826, -0.00321828, 0.00144941, 0.114508, 0.699649, 0.0676277
55647.606598027006839, 0.00182308, -0.00322188, 0.00143025, 0.114361, 0.700224, 0.0678114
55647.639914361003321, 0.00176401, -0.00322418, 0.0014073, 0.114233, 0.700685, 0.0679758
55647.673230723004963, 0.00170788, -0.00322583, 0.00138069, 0.113996, 0.701507, 0.068354
55647.706547027009947, 0.00167261, -0.00323095, 0.00136004, 0.113869, 0.701766, 0.0685986
55647.739863389004313, 0.0016153, -0.00323539, 0.0013265, 0.113691, 0.702149, 0.0689269
55647.773329723007919, 0.00154317, -0.0032398, 0.00128996, 0.113505, 0.702526, 0.0693276
55647.806646027005627, 0.00149732, -0.00323386, 0.00126171, 0.113485, 0.702421, 0.0694168
55647.839962361009384, 0.00145177, -0.00323649, 0.00123125, 0.11329, 0.7028, 0.0698086
55647.87327872300375, 0.00144573, -0.00323609, 0.00121909, 0.113097, 0.703222, 0.0702099
55647.906595056003425, 0.00142858, -0.00323671, 0.00120267, 0.112854, 0.703811, 0.0706979
55647.939911356006633, 0.00139212, -0.00325002, 0.00116734, 0.112277, 0.705095, 0.0719183
55647.973227694004891, 0.00135717, -0.00325835, 0.00114264, 0.111737, 0.706475, 0.0729604
55648.006544056006533, 0.00133786, -0.00327692, 0.00114061, 0.11127, 0.708036, 0.0736631
55648.039860389006208, 0.00132796, -0.00329868, 0.00115117, 0.111014, 0.7094, 0.0738303
55648.073176694007998, 0.0013075, -0.00331875, 0.00114212, 0.11067, 0.71057, 0.0744449
55648.106493023005896, 0.00130953, -0.00332709, 0.00114032, 0.110457, 0.711254, 0.0747933
55648.139959361004003, 0.00131858, -0.00332978, 0.00114581, 0.110311, 0.711896, 0.0748791
55648.173275723005645, 0.00130695, -0.00335289, 0.00114189, 0.109804, 0.713827, 0.0755935
55648.20659205600532, 0.00130861, -0.00336307, 0.00113245, 0.109397, 0.71489, 0.0763982
55648.23990836100711, 0.00129438, -0.00338989, 0.00112754, 0.109009, 0.716569, 0.0769654
55648.273224689008202, 0.00132321, -0.00339876, 0.00114807, 0.108737, 0.718041, 0.0768797
55648.306541056008427, 0.00131676, -0.00341137, 0.00114152, 0.108493, 0.71887, 0.0773668
55648.339857356004359, 0.00133546, -0.00341729, 0.00113773, 0.10808, 0.719822, 0.0781862
55648.373173694009893, 0.00137052, -0.00341808, 0.00114462, 0.107784, 0.720565, 0.0786225
55648.406490023007791, 0.00141084, -0.00341667, 0.00116176, 0.107686, 0.720993, 0.0784999
55648.439806389003934, 0.00142407, -0.00341432, 0.00116429, 0.107796, 0.72082, 0.0782613
55648.47327268900699, 0.00150546, -0.00339725, 0.0011927, 0.107718, 0.720743, 0.0780427
55648.506589027005248, 0.00150877, -0.00339426, 0.00119345, 0.107713, 0.720641, 0.0780618
55648.539905361009005, 0.00155833, -0.00337936, 0.00121377, 0.107812, 0.720291, 0.0775927
55648.573221689010097, 0.00157314, -0.00337961, 0.001223, 0.108001, 0.720399, 0.0769637
55648.606538023006578, 0.00161438, -0.00337272, 0.00123906, 0.10803, 0.720371, 0.0767032
55648.639854389009997, 0.00164339, -0.00335767, 0.00125003, 0.107887, 0.719899, 0.0770302
55648.673170694004511, 0.00166451, -0.00336536, 0.00127241, 0.108051, 0.720603, 0.0761608
55648.706487027004187, 0.00168878, -0.00336116, 0.0012827, 0.108225, 0.720705, 0.0755588
55648.739803389005829, 0.00172063, -0.00335841, 0.00129817, 0.108462, 0.721053, 0.0746776
55648.773119723009586, 0.00174119, -0.00335652, 0.00131007, 0.108605, 0.721295, 0.0741175
55648.806585999009258, 0.00176902, -0.00334638, 0.0013163, 0.1086, 0.721051, 0.0741627
55648.839902389008785, 0.00180906, -0.00333267, 0.00132746, 0.108445, 0.720632, 0.074678
55648.873218723005266, 0.00191518, -0.00332257, 0.00138306, 0.108979, 0.721788, 0.0725753
55648.906535056004941, 0.00193403, -0.00332687, 0.00140008, 0.109265, 0.722491, 0.0714936
55648.939851389004616, 0.0019524, -0.00332567, 0.00140766, 0.10926, 0.722571, 0.0715051
55648.973167723008373, 0.00199508, -0.00330855, 0.00141683, 0.108898, 0.722036, 0.0728078
55649.006484037003247, 0.00202233, -0.00330603, 0.00142753, 0.109039, 0.722339, 0.07231
55649.03980109000986, 0.00205585, -0.00329562, 0.0014364, 0.109193, 0.722784, 0.0717558
55649.073118218009768, 0.00212083, -0.00328208, 0.00145514, 0.109057, 0.723133, 0.0722985
55649.106435246008914, 0.00231759, -0.00324146, 0.00151486, 0.108799, 0.724747, 0.073436
55649.139752322007553, 0.00237249, -0.00322572, 0.00154269, 0.108746, 0.725686, 0.073849
55649.173219358010101, 0.00243212, -0.00321511, 0.00156454, 0.108964, 0.726383, 0.0732368
55649.206536439007323, 0.00246919, -0.00320679, 0.00157126, 0.108681, 0.72681, 0.0743076
55649.239853524006321, 0.0026044, -0.00318085, 0.00159841, 0.108159, 0.728739, 0.0763295
55649.27317055700405, 0.00263967, -0.00317502, 0.00160516, 0.107822, 0.729074, 0.0776254
55649.30648765200749, 0.00268863, -0.00316549, 0.00160548, 0.107304, 0.731196, 0.0792428
55649.339804694005579, 0.00268892, -0.00316949, 0.00160547, 0.107195, 0.730517, 0.0796608
55649.373121760007052, 0.00275064, -0.00316298, 0.00160863, 0.106624, 0.731891, 0.0815685
55649.406438827005331, 0.00276624, -0.00316345, 0.00160485, 0.106301, 0.732244, 0.0825456
55649.439755888008222, 0.00279497, -0.00316415, 0.00160281, 0.105809, 0.732463, 0.0841456
55649.473072959008277, 0.00280979, -0.00316537, 0.00159752, 0.10531, 0.73238, 0.0857079
55649.5065400290041, 0.00281344, -0.00316525, 0.00159519, 0.105024, 0.729981, 0.0867877
55649.539857067007688, 0.0028366, -0.00316486, 0.00159416, 0.104675, 0.728888, 0.0879498
55649.573174157005269, 0.00284707, -0.00316433, 0.00159102, 0.10437, 0.726864, 0.0887483
55649.60649125600321, 0.00284889, -0.00316471, 0.00158683, 0.104192, 0.725214, 0.0889698
55649.639808289008215, 0.00285642, -0.00316513, 0.00158328, 0.10386, 0.724763, 0.0899407
55649.673125389002962, 0.00289039, -0.0031842, 0.00156292, 0.102953, 0.730423, 0.0911938
55649.706442455004435, 0.00287941, -0.00318226, 0.00155916, 0.102718, 0.729059, 0.0919322
55649.73975952200999, 0.00287046, -0.00318003, 0.00154976, 0.102144, 0.727161, 0.0933205
55649.773076588004187, 0.00288152, -0.00318247, 0.00154299, 0.101622, 0.727958, 0.0946001
55649.80639365400566, 0.00289215, -0.00316504, 0.0015495, 0.101527, 0.723527, 0.0956966
55649.839710720007133, 0.00288496, -0.00315706, 0.00154991, 0.101448, 0.721174, 0.0960496
55649.873177790002956, 0.00288537, -0.00317901, 0.00153551, 0.100418, 0.726828, 0.0990165
55649.906494823007961, 0.00289002, -0.00317208, 0.00153312, 0.0999559, 0.725199, 0.100846
55649.939811923009984, 0.00288936, -0.00316664, 0.00153384, 0.0998996, 0.724011, 0.101165
55649.97312896000949, 0.00287961, -0.00314653, 0.00153886, 0.100092, 0.719557, 0.101355
55650.006445993007219, 0.00289267, -0.0031134, 0.0015481, 0.10013, 0.713557, 0.103208
55650.03976238200994, 0.00291826, -0.00307065, 0.00155683, 0.100091, 0.706054, 0.105813
55650.073078716006421, 0.00293799, -0.00303702, 0.00156027, 0.0998517, 0.700468, 0.108832
55650.106395078008063, 0.00293496, -0.00300325, 0.00156833, 0.100128, 0.69357, 0.109051
55650.139711378003994, 0.0029388, -0.00294145, 0.00158018, 0.100505, 0.68149, 0.110064
55650.173027716009528, 0.00290797, -0.00292991, 0.0015742, 0.100442, 0.678825, 0.110674
55650.206494078003743, 0.00290668, -0.00289073, 0.00157321, 0.100369, 0.671718, 0.113045
55650.239810382008727, 0.00290918, -0.00286005, 0.00159048, 0.10126, 0.666677, 0.11132
55650.273126716005208, 0.00288223, -0.00285348, 0.00159796, 0.101833, 0.66512, 0.109601
55650.306443078006851, 0.00291435, -0.00280891, 0.00163203, 0.103213, 0.657557, 0.106035
55650.339759382004559, 0.00291693, -0.00278539, 0.00163771, 0.103482, 0.653724, 0.106661
55650.373075711009733, 0.00291038, -0.0027754, 0.00163708, 0.1035, 0.65187, 0.106926
55650.406392078009958, 0.00289683, -0.00275125, 0.00164736, 0.104043, 0.647333, 0.105512
55650.439708411009633, 0.00288409, -0.00274674, 0.00165159, 0.104294, 0.646193, 0.10431
55650.473024711005564, 0.00285631, -0.00273335, 0.0016555, 0.104664, 0.643407, 0.103115
55650.506341078005789, 0.00286153, -0.00273248, 0.00166426, 0.104982, 0.643487, 0.102194
55650.539657411005464, 0.00285886, -0.00273738, 0.00166975, 0.105186, 0.644432, 0.101758
55650.573123744004988, 0.00286148, -0.00272732, 0.00166871, 0.105185, 0.64276, 0.102165
55650.606440078008745, 0.0028643, -0.00272976, 0.00166319, 0.104935, 0.643353, 0.102783
55650.639756416007003, 0.00285638, -0.00272637, 0.00166325, 0.105023, 0.64274, 0.102664
55650.673072744008095, 0.00285238, -0.00273828, 0.00166858, 0.105168, 0.644652, 0.102052
55650.706389044004027, 0.00286678, -0.00272992, 0.0016545, 0.10458, 0.643593, 0.105197
55650.739705411004252, 0.00286372, -0.0027218, 0.0016513, 0.104561, 0.642251, 0.105504
55650.773021716006042, 0.00286285, -0.00270916, 0.00163481, 0.104084, 0.639259, 0.106888
55650.806338049005717, 0.00284962, -0.00270302, 0.00162146, 0.103759, 0.637916, 0.107939
55650.839654411007359, 0.00287349, -0.00267849, 0.00162132, 0.103794, 0.634864, 0.10894
55650.872970744007034, 0.00287652, -0.00267644, 0.00161807, 0.103595, 0.634614, 0.110203
55650.90643704401009, 0.00289292, -0.00265696, 0.00161181, 0.103506, 0.6313, 0.111388
55650.939753382008348, 0.00288552, -0.00264882, 0.00160686, 0.103399, 0.629974, 0.11231
55650.97306974400999, 0.00291516, -0.00263942, 0.00160719, 0.103148, 0.628941, 0.114615
55651.006386049004504, 0.00293681, -0.00263918, 0.0016098, 0.102994, 0.62939, 0.115701
55651.039702411006147, 0.00297219, -0.00264423, 0.0016129, 0.102741, 0.630512, 0.116749
55651.073018744005822, 0.00296503, -0.00269169, 0.00161989, 0.102066, 0.638468, 0.117384
55651.106335078009579, 0.0029815, -0.00271983, 0.00162367, 0.101551, 0.6435, 0.11781
55651.139651411009254, 0.00300505, -0.00272696, 0.00163284, 0.101557, 0.645247, 0.117605
55651.172967716003768, 0.00303044, -0.00272185, 0.00163468, 0.101465, 0.644446, 0.118354
55651.20628404400486, 0.00306502, -0.00272009, 0.00163793, 0.101203, 0.64427, 0.119822
55651.239600368004176, 0.0031206, -0.00272602, 0.00165165, 0.10063, 0.645338, 0.122965
55651.273066711008141, 0.00313685, -0.00273277, 0.00165463, 0.100376, 0.646694, 0.123554
55651.306383044007816, 0.00315564, -0.00273694, 0.00165955, 0.100269, 0.647631, 0.123756
55651.339699416006624, 0.00319653, -0.00274732, 0.00166865, 0.0998156, 0.649996, 0.124882
55651.373015744007716, 0.00322783, -0.00276047, 0.00167874, 0.0994825, 0.652608, 0.125498
55651.406332049009507, 0.00326909, -0.00277599, 0.00169645, 0.0992489, 0.656211, 0.125447
55651.439648349005438, 0.00328775, -0.00278487, 0.00170674, 0.0992004, 0.658242, 0.125094
55651.47296471100708, 0.0033256, -0.00280125, 0.00172166, 0.0986433, 0.662556, 0.125777
55651.506281077003223, 0.00335425, -0.00280323, 0.00172684, 0.0984631, 0.662998, 0.126386
55651.539597720009624, 0.00335798, -0.00280033, 0.00172677, 0.0985448, 0.662397, 0.126263
55651.57291371600877, 0.00336646, -0.00280031, 0.00172655, 0.0983384, 0.662649, 0.126839
55651.606380077006179, 0.00337572, -0.00279264, 0.00172072, 0.0980444, 0.661211, 0.128241
55651.639696411009936, 0.00338573, -0.00277315, 0.00170693, 0.0977789, 0.65727, 0.130231
55651.673012744009611, 0.00339087, -0.00277191, 0.00170726, 0.0977114, 0.657166, 0.130477
55651.706329044005543, 0.00338796, -0.00276462, 0.00170298, 0.097666, 0.655763, 0.130961
55651.739645411005768, 0.0034063, -0.00276123, 0.00170427, 0.097593, 0.65495, 0.131553
55651.772961749004025, 0.00346146, -0.00275221, 0.00170472, 0.0972345, 0.653057, 0.13353
55651.806278049007233, 0.00347199, -0.00274479, 0.00170216, 0.0971359, 0.651683, 0.134155
55651.839594382006908, 0.00348774, -0.00273551, 0.00169767, 0.0968976, 0.650084, 0.135264
55651.872910711004806, 0.00351624, -0.00271771, 0.00168848, 0.0962788, 0.647507, 0.137336
55651.906227077008225, 0.00352372, -0.00271647, 0.00168908, 0.096162, 0.647498, 0.137722
55651.939693377004005, 0.00358019, -0.00267282, 0.00167839, 0.0958305, 0.639743, 0.140227
55651.973009715009539, 0.00360717, -0.00265312, 0.00167472, 0.0954995, 0.636671, 0.14169
55652.006326539005386, 0.00361016, -0.00264492, 0.00167154, 0.0954224, 0.635688, 0.141705
55652.039642411007662, 0.00361168, -0.00263878, 0.00166921, 0.095322, 0.63499, 0.141844
55652.07295871500537, 0.00361537, -0.00263602, 0.00166833, 0.0951705, 0.634918, 0.142033
55652.106275077007012, 0.00362983, -0.00261975, 0.0016664, 0.0950285, 0.632492, 0.142612
55652.139591411003494, 0.00363599, -0.00260242, 0.00166498, 0.0949101, 0.629943, 0.142854
55652.172907744003169, 0.00364643, -0.0025805, 0.00166456, 0.0946568, 0.626827, 0.143468
55652.20622407701012, 0.0036547, -0.00256562, 0.00166403, 0.0944992, 0.624437, 0.144337
55652.239540349008166, 0.00365759, -0.0025606, 0.00166393, 0.0943322, 0.623848, 0.144739
55652.272856744006276, 0.00366333, -0.00254329, 0.00166322, 0.0943097, 0.620752, 0.145692
55652.3063230770058, 0.00366185, -0.00253484, 0.00166235, 0.094282, 0.619472, 0.1458
55652.33963938200759, 0.00366929, -0.00252293, 0.00166386, 0.0943757, 0.617544, 0.145784
55652.372955744009232, 0.00367529, -0.00251246, 0.00166577, 0.0943545, 0.615883, 0.146223
55652.406272049003746, 0.00367017, -0.00250632, 0.00166405, 0.0942866, 0.615048, 0.14675
55652.439588382003421, 0.00367147, -0.00250142, 0.00166514, 0.0943651, 0.614072, 0.146971
55652.472904715003096, 0.00365934, -0.00248983, 0.00166024, 0.0946987, 0.610469, 0.148891
55652.506221049006854, 0.00367789, -0.00247083, 0.0016642, 0.0949924, 0.606811, 0.149999
55652.539537411008496, 0.0036884, -0.0024522, 0.00166452, 0.0950919, 0.60382, 0.151088
55652.572853744008171, 0.00371679, -0.00241929, 0.00167655, 0.095738, 0.598132, 0.150803
55652.606170077007846, 0.00374534, -0.00239309, 0.00168402, 0.0960719, 0.593906, 0.151541
55652.639636411004176, 0.00379127, -0.00233756, 0.00169419, 0.0965331, 0.58531, 0.153771
55652.672952682005416, 0.00387431, -0.00228798, 0.00171545, 0.0972246, 0.577817, 0.153819
55652.706269077003526, 0.00389001, -0.0022676, 0.00172415, 0.0975721, 0.574725, 0.153179
55652.739585411007283, 0.00392284, -0.00223718, 0.00173114, 0.0978244, 0.570411, 0.153558
55652.772901744006958, 0.0039317, -0.00221844, 0.00173516, 0.098051, 0.567693, 0.15361
55652.806218077006633, 0.00396806, -0.00217675, 0.00175338, 0.0987753, 0.561747, 0.15214
55652.839534411003115, 0.00402894, -0.00211902, 0.00177999, 0.0997976, 0.553275, 0.150265
55652.872850711006322, 0.00409013, -0.00205757, 0.00178537, 0.100009, 0.545035, 0.151976
55652.90616704900458, 0.00409464, -0.00204811, 0.00178649, 0.100052, 0.54387, 0.151863
55652.939483377005672, 0.00410993, -0.00203535, 0.0017959, 0.100457, 0.542049, 0.150827
55652.97279971500393, 0.00411992, -0.00201846, 0.00181202, 0.101321, 0.539432, 0.148345
55653.006266044008953, 0.00415471, -0.00199553, 0.00182643, 0.101724, 0.536598, 0.146064
55653.039582382007211, 0.00422456, -0.00195499, 0.0018347, 0.101629, 0.531856, 0.145797
55653.072898711005109, 0.00427566, -0.00192231, 0.00184355, 0.102025, 0.527796, 0.145329
55653.106215049003367, 0.00427875, -0.00191417, 0.00184037, 0.101872, 0.526774, 0.145825
55653.139531411005009, 0.00430457, -0.00189626, 0.00183459, 0.10152, 0.524718, 0.146884
55653.172847687004833, 0.00432133, -0.00188437, 0.00183192, 0.10137, 0.523303, 0.147411
55653.206164049006475, 0.00432462, -0.00188295, 0.00182595, 0.101035, 0.523143, 0.148327
55653.239480411008117, 0.0043002, -0.00189004, 0.00181714, 0.100735, 0.52388, 0.149422
55653.27279668700794, 0.00428068, -0.00188913, 0.00180652, 0.100462, 0.523509, 0.150736
55653.306113015009032, 0.00425305, -0.00189358, 0.00179357, 0.10004, 0.523813, 0.152688
55653.339579382009106, 0.00417554, -0.00191974, 0.0017796, 0.0993197, 0.526715, 0.153445
55653.372895715008781, 0.00415853, -0.00192666, 0.00177966, 0.0992831, 0.52764, 0.153567
55653.406212044006679, 0.00413681, -0.00194273, 0.00177987, 0.0990811, 0.529712, 0.153733
55653.439528349008469, 0.00415475, -0.00197685, 0.00179043, 0.0990507, 0.534678, 0.157284
55653.472844682008144, 0.0040162, -0.0020378, 0.00180543, 0.0990909, 0.54224, 0.154672
55653.506161077006254, 0.00401805, -0.00204078, 0.00179929, 0.0987515, 0.542444, 0.156642
55653.539477382008045, 0.00402973, -0.00204076, 0.00179774, 0.0985715, 0.542383, 0.15744
55653.572793744009687, 0.0040443, -0.00204318, 0.00179931, 0.0984591, 0.542706, 0.158039
55653.606110044005618, 0.0040378, -0.00204509, 0.00179643, 0.0983142, 0.542793, 0.158509
55653.639426410009037, 0.00405034, -0.00205033, 0.00180218, 0.0982931, 0.543621, 0.158312
55653.672742744005518, 0.00407607, -0.00205859, 0.00181202, 0.098149, 0.545007, 0.158357
55653.706209049007157, 0.00408872, -0.00205372, 0.00180722, 0.0980957, 0.544372, 0.159209
55653.739525382006832, 0.00408869, -0.00205394, 0.00180741, 0.0979816, 0.544409, 0.159629
55653.772841744008474, 0.00409531, -0.00205541, 0.00180622, 0.0978259, 0.544637, 0.160471
55653.806158044004405, 0.00409455, -0.00205365, 0.00180315, 0.0977719, 0.544252, 0.160992
55653.839474410007824, 0.00409668, -0.00205477, 0.00180435, 0.0978214, 0.54442, 0.160716
55653.872790744004305, 0.00410784, -0.00205912, 0.00181092, 0.0977093, 0.545336, 0.160341
55653.906107044007513, 0.00411264, -0.00205942, 0.00181237, 0.0976594, 0.545491, 0.160374
55653.939423382005771, 0.0041182, -0.00205923, 0.00181235, 0.0975416, 0.545513, 0.160859
55653.972739744007413, 0.00411469, -0.00205463, 0.00180644, 0.0973197, 0.544922, 0.161621
55654.006056044003344, 0.00411545, -0.00205089, 0.00180241, 0.0972088, 0.544426, 0.162126
55654.039522382008727, 0.00411289, -0.00205334, 0.00180688, 0.0970338, 0.545152, 0.161388
55654.072838744003093, 0.00410555, -0.00205422, 0.00180537, 0.0968568, 0.545157, 0.161844
55654.106155077010044, 0.00410275, -0.0020416, 0.00178934, 0.0963811, 0.542802, 0.164725
55654.139471410009719, 0.00409922, -0.00204317, 0.00178328, 0.095817, 0.542164, 0.167546
55654.172787715004233, 0.00409495, -0.00203981, 0.00177352, 0.0953372, 0.540824, 0.170262
55654.206104048003908, 0.00409812, -0.00203366, 0.0017705, 0.0952009, 0.539868, 0.170986
55654.23942041000555, 0.00409822, -0.00203067, 0.00176993, 0.0950794, 0.539435, 0.171369
55654.272736744009308, 0.00408758, -0.00202526, 0.00176368, 0.0948986, 0.538343, 0.172534
55654.306053048007016, 0.00408609, -0.00202119, 0.00175921, 0.0946454, 0.537427, 0.173738
55654.339369410008658, 0.00408221, -0.00201852, 0.00175753, 0.0945121, 0.537047, 0.174223
55654.372685744005139, 0.00407912, -0.00201059, 0.00175495, 0.0944023, 0.53575, 0.174984
55654.406152077004663, 0.00406593, -0.00200991, 0.00175226, 0.0942353, 0.535472, 0.175643
55654.43946837700787, 0.00407137, -0.0019959, 0.00174924, 0.0942454, 0.533143, 0.176521
55654.472784710007545, 0.00409647, -0.00196956, 0.0017469, 0.0944227, 0.528979, 0.177822
55654.506101048005803, 0.00409821, -0.00195382, 0.00174231, 0.0945475, 0.526314, 0.178915
55654.53941738200956, 0.00410487, -0.00194602, 0.00174255, 0.0947167, 0.525123, 0.178801
55654.572733744003926, 0.00410832, -0.00193486, 0.00174168, 0.0949558, 0.523383, 0.178979
55654.606050077003601, 0.00417727, -0.00191194, 0.00175186, 0.0954843, 0.520899, 0.178279
55654.639366410003277, 0.0043337, -0.00186956, 0.0017815, 0.0966671, 0.517509, 0.173925
55654.672682744007034, 0.00430972, -0.00186177, 0.00177836, 0.0970688, 0.516167, 0.174077
55654.705999072008126, 0.00435896, -0.00184123, 0.00178645, 0.0975968, 0.514301, 0.172996
55654.739465382008348, 0.00434103, -0.00183369, 0.00178268, 0.0976815, 0.513402, 0.172847
55654.77278171000944, 0.00431424, -0.00183004, 0.0017753, 0.097528, 0.512869, 0.173311
55654.806098077009665, 0.00431561, -0.00182789, 0.00177587, 0.0975992, 0.512644, 0.173098
55654.839414382004179, 0.00432133, -0.00182028, 0.00177841, 0.0979486, 0.511833, 0.172411
55654.872730744005821, 0.00431416, -0.00181557, 0.00177534, 0.0980099, 0.511227, 0.172389
55654.906047044009028, 0.00431369, -0.00181311, 0.00177438, 0.0981268, 0.51081, 0.17244
55654.939363463003247, 0.00431226, -0.00180828, 0.00177308, 0.0982299, 0.510242, 0.172135
55654.972679744008929, 0.00430141, -0.00180685, 0.00176802, 0.0980965, 0.509966, 0.172248
55655.00599604400486, 0.0042922, -0.00180531, 0.00176292, 0.0979686, 0.509644, 0.172347
55655.039312410008279, 0.00429328, -0.00179686, 0.00176244, 0.0981385, 0.508788, 0.171961
55655.072778744004609, 0.00429164, -0.00180295, 0.00176375, 0.0979836, 0.509378, 0.172611
55655.106095077004284, 0.00429364, -0.0018048, 0.00176355, 0.0978758, 0.509401, 0.172999
55655.139411410003959, 0.00429705, -0.0018058, 0.00176392, 0.0978017, 0.509347, 0.173573
55655.172727748009493, 0.00429684, -0.00181186, 0.00176357, 0.0975468, 0.509762, 0.174561
55655.206044044003647, 0.00428838, -0.00181575, 0.00175816, 0.0973259, 0.509637, 0.17565
55655.239360382009181, 0.00428456, -0.00182318, 0.00175527, 0.0970897, 0.509882, 0.177399
55655.272676715008856, 0.00428489, -0.00183344, 0.0017537, 0.0965381, 0.510799, 0.177921
55655.30599302000337, 0.00428876, -0.00183138, 0.00174498, 0.0963651, 0.510026, 0.1785
55655.33930937700643, 0.00429693, -0.0018348, 0.00174603, 0.0962657, 0.510297, 0.179015
55655.372625715004688, 0.00431332, -0.00184153, 0.00175903, 0.0962587, 0.511432, 0.179378
55655.405942063007387, 0.00432985, -0.00184666, 0.00177075, 0.0963822, 0.512208, 0.179719
55655.439408410005854, 0.00434113, -0.00185223, 0.00177733, 0.096396, 0.512791, 0.180372
55655.472724744009611, 0.00435829, -0.00185696, 0.00179097, 0.096453, 0.513693, 0.180587
55655.506041077009286, 0.00436, -0.00186358, 0.00180227, 0.0963898, 0.514743, 0.180709
55655.539357410008961, 0.00437104, -0.00186937, 0.00181645, 0.096386, 0.515815, 0.180794
55655.572673744005442, 0.00438258, -0.00187269, 0.00182899, 0.0964428, 0.516619, 0.180766
55655.605990044008649, 0.00438011, -0.00187726, 0.00183482, 0.0963511, 0.517152, 0.180886
55655.639306410004792, 0.00440019, -0.00188976, 0.00187315, 0.0962994, 0.519857, 0.180549
55655.672622744008549, 0.00441261, -0.00189325, 0.001891, 0.0964073, 0.52094, 0.180324
55655.705939077008225, 0.00442443, -0.00189239, 0.00189806, 0.0965491, 0.5212, 0.180165
55655.7392554100079, 0.00441789, -0.0018957, 0.00190844, 0.0964236, 0.522083, 0.179841
55655.772721743007423, 0.00441361, -0.00190472, 0.00193835, 0.0959931, 0.524494, 0.179031
55655.806038043003355, 0.00440344, -0.00190957, 0.00194606, 0.0957965, 0.52515, 0.178947
55655.83935441000358, 0.00439099, -0.00191389, 0.00195395, 0.0955566, 0.525904, 0.178709
55655.872670682008902, 0.00438891, -0.00191607, 0.00196039, 0.09526, 0.526401, 0.178478
55655.905987077007012, 0.00437676, -0.00191919, 0.00196022, 0.0950123, 0.526436, 0.178646
55655.939303382008802, 0.00436918, -0.00192359, 0.00195775, 0.0948431, 0.52626, 0.17898
55655.972619715008477, 0.00437814, -0.00192124, 0.00194779, 0.0948562, 0.525377, 0.179291
55656.005936048008152, 0.00439196, -0.00191446, 0.00195642, 0.0950232, 0.525951, 0.178632
55656.039252410009794, 0.00439651, -0.00191734, 0.00195947, 0.0946089, 0.526144, 0.178508
55656.072568743009469, 0.00439624, -0.00192143, 0.00195914, 0.0942708, 0.525863, 0.178605
55656.105885077005951, 0.00438768, -0.0019281, 0.00195954, 0.0938547, 0.525462, 0.178719
55656.139351377009007, 0.00438282, -0.00192885, 0.00195814, 0.0938534, 0.525385, 0.178801
55656.172667715007265, 0.00435014, -0.0019383, 0.00194998, 0.0937574, 0.524704, 0.179508
55656.205984077008907, 0.00433732, -0.00194348, 0.00195209, 0.0936303, 0.52486, 0.179758
55656.239300348002871, 0.00431465, -0.00195109, 0.00194632, 0.0934889, 0.524241, 0.180185
55656.272616743008257, 0.00426817, -0.00195807, 0.00193328, 0.0935453, 0.523463, 0.180659
55656.305933043004188, 0.00425528, -0.00195973, 0.00193407, 0.0935112, 0.523682, 0.180798
55656.339249377007945, 0.00424359, -0.00196527, 0.00191271, 0.0942084, 0.520405, 0.181539
55656.372565743004088, 0.00420714, -0.00197333, 0.00190122, 0.0945441, 0.519032, 0.182156
55656.405882043007296, 0.00418163, -0.00197738, 0.00188993, 0.0948019, 0.517935, 0.182396
55656.439198410007521, 0.00415673, -0.00198226, 0.00188138, 0.0948721, 0.516761, 0.182509
55656.472664739005268, 0.00411358, -0.00199034, 0.00186851, 0.0950503, 0.515102, 0.182869
55656.505981077003526, 0.00407978, -0.00199439, 0.00185308, 0.0955599, 0.512883, 0.182806
55656.539297410003201, 0.00409645, -0.00199027, 0.00185432, 0.0957756, 0.513147, 0.18258
55656.572613743002876, 0.00410197, -0.00198884, 0.00185389, 0.0958379, 0.513065, 0.182474
55656.605930043006083, 0.00408671, -0.00199111, 0.00184834, 0.0959999, 0.512148, 0.182594
55656.639246410006308, 0.00411132, -0.00198656, 0.00184361, 0.0962487, 0.51109, 0.18192
55656.672562743005983, 0.00410979, -0.00198893, 0.00184182, 0.0962524, 0.510465, 0.181989
55656.705879048007773, 0.00409741, -0.00199086, 0.00184046, 0.096334, 0.510168, 0.182259
55656.739195377005672, 0.00409451, -0.0019907, 0.00184211, 0.0963412, 0.510495, 0.182322
55656.77251174300909, 0.00406371, -0.00199462, 0.00184089, 0.0964613, 0.510264, 0.183011
55656.805828077005572, 0.00401132, -0.00200055, 0.00183852, 0.0965606, 0.510093, 0.18405
55656.839294377008628, 0.00402043, -0.00201757, 0.00183591, 0.0957802, 0.509706, 0.184015
55656.872610681006336, 0.00401985, -0.00201853, 0.00183612, 0.0957506, 0.509703, 0.184068
55656.905927048006561, 0.0040117, -0.0020224, 0.00183767, 0.0956225, 0.509922, 0.184219
55656.939243377004459, 0.00401637, -0.00202729, 0.00183923, 0.0955094, 0.509704, 0.184522
55656.972559715009993, 0.00401484, -0.00202951, 0.0018402, 0.0954706, 0.509682, 0.184658
55657.005876077004359, 0.00400306, -0.00202666, 0.00183676, 0.0955674, 0.509567, 0.184633
55657.039192410004034, 0.0039903, -0.0020275, 0.00183683, 0.0955865, 0.509594, 0.18478
55657.072508743003709, 0.00399131, -0.00203271, 0.00183971, 0.0955146, 0.509564, 0.185031
55657.105825077007466, 0.00397842, -0.00204316, 0.00184081, 0.0954305, 0.5093, 0.18558
55657.139141410007142, 0.0039617, -0.00205474, 0.00184724, 0.0953247, 0.509319, 0.186169
55657.17260771500878, 0.00396017, -0.00205603, 0.00184712, 0.0952935, 0.509356, 0.186172
55657.205924077003147, 0.00395328, -0.00205566, 0.00184728, 0.0953297, 0.50932, 0.186281
55657.239240410010098, 0.00393249, -0.00206108, 0.00186021, 0.0952907, 0.509733, 0.186558
55657.272556743009773, 0.00390777, -0.00207155, 0.00187428, 0.0951865, 0.510126, 0.186834
55657.305873043005704, 0.00384416, -0.00208747, 0.0018989, 0.0951628, 0.510715, 0.187414
55657.339189353006077, 0.00385564, -0.00208967, 0.00191674, 0.0952152, 0.510997, 0.187503
55657.372505715007719, 0.00383816, -0.00209111, 0.00195276, 0.095431, 0.511624, 0.187516
55657.405822810003883, 0.00383124, -0.00210482, 0.00197698, 0.0955671, 0.511966, 0.187956
55657.439138377005293, 0.00383039, -0.00210481, 0.00198163, 0.0955957, 0.512045, 0.187929
55657.472454743008711, 0.00385914, -0.00210727, 0.00200142, 0.0959379, 0.512307, 0.18806
55657.505771077005193, 0.00387418, -0.00210455, 0.00202818, 0.0962473, 0.51278, 0.187823
55657.539237381010025, 0.00389762, -0.00208856, 0.00205844, 0.0964941, 0.513341, 0.187083
55657.572553710007924, 0.00390797, -0.00209076, 0.00206752, 0.0966792, 0.513587, 0.18708
55657.605870077008149, 0.00391788, -0.00208604, 0.00208283, 0.0968463, 0.513926, 0.186776
55657.639186396008881, 0.00392164, -0.00208543, 0.00207901, 0.0968419, 0.513855, 0.186812
55657.672502715009614, 0.00391076, -0.00209136, 0.00207728, 0.0967829, 0.513799, 0.186973
55657.705819048009289, 0.00390851, -0.00209461, 0.00207757, 0.0968237, 0.513863, 0.187038
55657.739135381008964, 0.00392746, -0.00209702, 0.00207439, 0.0970371, 0.514045, 0.187133
55657.77245174300333, 0.00392418, -0.00210757, 0.00206432, 0.0969845, 0.513835, 0.187528
55657.805768043006537, 0.0039489, -0.00210015, 0.00206479, 0.0969551, 0.513731, 0.187385
55657.839084410006762, 0.00397373, -0.00209274, 0.00206956, 0.0969995, 0.513804, 0.18717
55657.872550710009818, 0.00397967, -0.00210535, 0.00206634, 0.0969928, 0.513732, 0.187496
55657.905867043009493, 0.00398092, -0.0021106, 0.00206861, 0.0969758, 0.51374, 0.187599
55657.939183381007751, 0.00398746, -0.00210638, 0.00207357, 0.0968554, 0.513603, 0.18752
55657.972499743009394, 0.0039888, -0.00211314, 0.0020673, 0.0968157, 0.513356, 0.187732
55658.005816076009069, 0.00397074, -0.00211025, 0.00205968, 0.0967338, 0.513129, 0.187709
55658.03913241000555, 0.00397207, -0.00211574, 0.0020562, 0.0966338, 0.512776, 0.187865
55658.07244871500734, 0.00397706, -0.00211158, 0.00206179, 0.0965287, 0.512686, 0.187749
55658.105765081003483, 0.00397774, -0.00211426, 0.00206135, 0.0965365, 0.512651, 0.1878
55658.13908138100669, 0.00397954, -0.00211905, 0.00206028, 0.0963618, 0.512032, 0.187716
55658.172397710004589, 0.00398692, -0.00212842, 0.00206492, 0.0961996, 0.511447, 0.187654
55658.205864043004112, 0.00398959, -0.00213716, 0.00206743, 0.0961042, 0.510901, 0.187575
55658.239180410004337, 0.00397932, -0.00214149, 0.0020687, 0.0960666, 0.510658, 0.187554
55658.272496743004012, 0.00397537, -0.00215102, 0.00206471, 0.0961091, 0.510285, 0.187553
55658.305813076003687, 0.00395612, -0.00216436, 0.00206579, 0.096164, 0.509886, 0.187632
55658.33913277600368, 0.00393859, -0.00217195, 0.0020671, 0.0961338, 0.509414, 0.18753
55658.372445715009235, 0.00392534, -0.00217565, 0.00207041, 0.0961666, 0.509407, 0.187808
55658.405762076006795, 0.00391493, -0.00218125, 0.00207166, 0.0961937, 0.5091, 0.18775
55658.439078410003276, 0.00390942, -0.00218863, 0.00207674, 0.0962041, 0.508499, 0.187469
55658.472394710006483, 0.00389415, -0.00219779, 0.00208074, 0.0962773, 0.507977, 0.187352
55658.505711048004741, 0.003853, -0.00221102, 0.00207802, 0.0963966, 0.507473, 0.187348
55658.539027381004416, 0.00384207, -0.00221336, 0.00207973, 0.0964234, 0.507227, 0.187348
55658.572493753003073, 0.00382989, -0.00222427, 0.00208409, 0.096617, 0.506628, 0.187127
55658.605810043009114, 0.0038228, -0.0022311, 0.00209062, 0.0967104, 0.506026, 0.186867
55658.63912637600879, 0.00379423, -0.00224275, 0.00210402, 0.0969167, 0.504755, 0.186679
55658.672442743009015, 0.00377353, -0.00225958, 0.002114, 0.0973221, 0.5036, 0.186147
55658.70575907600869, 0.00376249, -0.0022731, 0.00212719, 0.0976363, 0.502474, 0.18532
55658.739075381003204, 0.00375036, -0.00228032, 0.00213941, 0.097857, 0.501334, 0.184924
55658.772391743004846, 0.00375159, -0.00228743, 0.00214738, 0.0981067, 0.500743, 0.184536
55658.805708048006636, 0.00374991, -0.00229394, 0.00215692, 0.0983743, 0.499918, 0.184074
55658.839024376007728, 0.00374907, -0.00229684, 0.0021639, 0.0985263, 0.499321, 0.183782
55658.87234071000421, 0.00375948, -0.00230389, 0.00217686, 0.098983, 0.498393, 0.183155
55658.905807076007477, 0.00376602, -0.00231551, 0.0022031, 0.0996991, 0.496131, 0.18164
55658.939123410003958, 0.00376562, -0.00231845, 0.00220907, 0.0999294, 0.495557, 0.181253
55658.972439710007166, 0.00375677, -0.00232115, 0.00221212, 0.10017, 0.495167, 0.181124
55659.005756076003308, 0.00375531, -0.00232817, 0.00221801, 0.100655, 0.494739, 0.180774
55659.039072381005099, 0.00376948, -0.00232963, 0.00222325, 0.100768, 0.494506, 0.180313
55659.072388743006741, 0.00379701, -0.00232715, 0.00223586, 0.100985, 0.493397, 0.179484
55659.105705076006416, 0.00380689, -0.00232681, 0.00223979, 0.100945, 0.493071, 0.179159
55659.139021381008206, 0.00381251, -0.00232305, 0.00224712, 0.100996, 0.492147, 0.17919
55659.172337743009848, 0.00381921, -0.00232179, 0.00225255, 0.101026, 0.491449, 0.178867
55659.205654014003812, 0.00383101, -0.00232165, 0.00226061, 0.101218, 0.490351, 0.178171
55659.238970410006004, 0.0038267, -0.00232175, 0.00226188, 0.101165, 0.489823, 0.177677
55659.272436743005528, 0.0038231, -0.00232242, 0.00225957, 0.101023, 0.48999, 0.177313
55659.305753076005203, 0.00382048, -0.00232338, 0.00226002, 0.101017, 0.489682, 0.17695
55659.33906937600841, 0.00381665, -0.00232266, 0.00226056, 0.100977, 0.489194, 0.176804
55659.372385743008635, 0.00381733, -0.00232159, 0.00226096, 0.100899, 0.488798, 0.176765
55659.405702043004567, 0.00380962, -0.00232032, 0.00225771, 0.10066, 0.489132, 0.177032
55659.439018381010101, 0.00378495, -0.00231907, 0.00225458, 0.100581, 0.488958, 0.177511
55659.472334686004615, 0.00376663, -0.00232086, 0.00225021, 0.100403, 0.489291, 0.177749
55659.505651043007674, 0.00376393, -0.00232104, 0.00224969, 0.10041, 0.489441, 0.177971
55659.538967410007899, 0.00374288, -0.00231968, 0.00225158, 0.100749, 0.488874, 0.178689
55659.57228371000383, 0.00372008, -0.00231777, 0.00225496, 0.10116, 0.488196, 0.179391
55659.605750019007246, 0.00369875, -0.00231834, 0.00225797, 0.101373, 0.488411, 0.180111
55659.639066381008888, 0.00369932, -0.00231848, 0.00225828, 0.101371, 0.488467, 0.180137
55659.672382681004819, 0.00369291, -0.0023211, 0.00226114, 0.10144, 0.48878, 0.180146
55659.705699076002929, 0.00368469, -0.00232157, 0.00226284, 0.101641, 0.488427, 0.180057
55659.739015410006687, 0.0036868, -0.00232349, 0.00226609, 0.101794, 0.488566, 0.179843
55659.772331729007419, 0.00370074, -0.00232497, 0.00226951, 0.101742, 0.489132, 0.179957
55659.805648048008152, 0.00368949, -0.00232776, 0.00227319, 0.102081, 0.489004, 0.179714
55659.838964410009794, 0.00370509, -0.00233087, 0.00228054, 0.102338, 0.489392, 0.179142
55659.872280714007502, 0.00372701, -0.00233452, 0.00228816, 0.10232, 0.490344, 0.179235
55659.9055970430054, 0.00372472, -0.00233575, 0.00229015, 0.102461, 0.490416, 0.179023
55659.938913381003658, 0.00372942, -0.00233777, 0.002295, 0.102588, 0.49074, 0.17883
55659.972379710008681, 0.00373475, -0.00234237, 0.00230226, 0.102704, 0.491491, 0.178783
55660.005696048006939, 0.00371882, -0.00234273, 0.00230163, 0.102806, 0.491364, 0.178865
55660.039012376008031, 0.00371368, -0.002343, 0.00230289, 0.103072, 0.491258, 0.178298
55660.072328710004513, 0.00371786, -0.00234633, 0.00230773, 0.103035, 0.49197, 0.178496
55660.105645043004188, 0.00369616, -0.0023468, 0.0023014, 0.102694, 0.491746, 0.179598
55660.138961410004413, 0.00370374, -0.00234858, 0.00230335, 0.102395, 0.492131, 0.180376
55660.172277743004088, 0.00373753, -0.00235118, 0.00231815, 0.102204, 0.493272, 0.181043
55660.205594019003911, 0.00377013, -0.00234469, 0.00231697, 0.101424, 0.492134, 0.182471
55660.238910381005553, 0.0037713, -0.00235126, 0.00231246, 0.100923, 0.491886, 0.182564
55660.272226743007195, 0.00377729, -0.0023491, 0.00231026, 0.100935, 0.491468, 0.182288
55660.305693076006719, 0.00378022, -0.00234701, 0.00230738, 0.100901, 0.49082, 0.18227
55660.339009348004765, 0.00377993, -0.00234957, 0.00230857, 0.100666, 0.490975, 0.182171
55660.372325743002875, 0.00376936, -0.00235267, 0.00230995, 0.100372, 0.491109, 0.182247
55660.405642076009826, 0.00373383, -0.00235283, 0.00230434, 0.100389, 0.490671, 0.182627
55660.438958409009501, 0.00369894, -0.00235459, 0.00230078, 0.100309, 0.490425, 0.182828
55660.472274709005433, 0.00368087, -0.00235502, 0.00229792, 0.100276, 0.490234, 0.182822
55660.505591076005658, 0.00367412, -0.00235416, 0.00229507, 0.100338, 0.490008, 0.182577
55660.538907381007448, 0.00364338, -0.00235373, 0.0022874, 0.100496, 0.489438, 0.182649
55660.57222370900854, 0.00363897, -0.00235322, 0.00228569, 0.100538, 0.489307, 0.182629
55660.605540076008765, 0.00364052, -0.00235218, 0.00228603, 0.10064, 0.489179, 0.182706
55660.63885640900844, 0.00363213, -0.00235046, 0.00228453, 0.100789, 0.488935, 0.182936
55660.67232274300477, 0.00362286, -0.00235002, 0.00228148, 0.100951, 0.48865, 0.182822
55660.705639076004445, 0.00362722, -0.00235101, 0.00228531, 0.100639, 0.489218, 0.183408
55660.73895540900412, 0.00363248, -0.00235224, 0.00228832, 0.100377, 0.489815, 0.183729
55660.77227171400591, 0.00366482, -0.00234859, 0.0022946, 0.100722, 0.489774, 0.183414
55660.805588076007552, 0.00368259, -0.00234656, 0.00229855, 0.100889, 0.489982, 0.183349
55660.838904376003484, 0.00368689, -0.00234599, 0.00230023, 0.101059, 0.490002, 0.183401
55660.872220743003709, 0.00368833, -0.00234561, 0.00230332, 0.101288, 0.490181, 0.183567
55660.905537076003384, 0.00368378, -0.00234601, 0.00230386, 0.101387, 0.490231, 0.183673
55660.938853376006591, 0.00371713, -0.00234597, 0.00232124, 0.101613, 0.491544, 0.183954
55660.972169714004849, 0.00373349, -0.00234629, 0.00233032, 0.101705, 0.492144, 0.183996
55661.00563607600634, 0.00374408, -0.00234571, 0.00233848, 0.101873, 0.492685, 0.183996
55661.038952409006015, 0.00374405, -0.00234832, 0.00235024, 0.101923, 0.493579, 0.184563
55661.072268743009772, 0.00371607, -0.00235034, 0.00234701, 0.101983, 0.493191, 0.185143
55661.105585076009447, 0.00370419, -0.00235062, 0.00234699, 0.10207, 0.493003, 0.185447
55661.138901381003961, 0.00369235, -0.00235362, 0.00234423, 0.102002, 0.492849, 0.185847
55661.172217714003637, 0.00365023, -0.00235985, 0.0023343, 0.101867, 0.492166, 0.186792
55661.205534019005427, 0.00361478, -0.00236102, 0.00233526, 0.102041, 0.491986, 0.187343
55661.238850376008486, 0.00356335, -0.0023658, 0.00233266, 0.102012, 0.491801, 0.188255
55661.272166686008859, 0.00353699, -0.00236967, 0.00233606, 0.10199, 0.492012, 0.188809
55661.305483076008386, 0.0035315, -0.00236836, 0.00233803, 0.101944, 0.492184, 0.1888
55661.33894940900791, 0.00355086, -0.00237135, 0.00234417, 0.101694, 0.492641, 0.188741
55661.3722657140097, 0.00354191, -0.00237433, 0.00234506, 0.101584, 0.492713, 0.188917
55661.405582076004066, 0.00354595, -0.00237778, 0.00234979, 0.101454, 0.493007, 0.18896
55661.438898347005306, 0.00355703, -0.00238244, 0.00235066, 0.1013, 0.493038, 0.18909
55661.472214743007498, 0.00354691, -0.00239303, 0.00235665, 0.101071, 0.493199, 0.189658
55661.50553104300343, 0.00354329, -0.00239786, 0.00236151, 0.100966, 0.493378, 0.189894
55661.538847409006848, 0.00353104, -0.0024032, 0.00235527, 0.1009, 0.493196, 0.190096
55661.57216374300333, 0.00351892, -0.00240497, 0.00235362, 0.100918, 0.493074, 0.190308
55661.605480095007806, 0.00351498, -0.00240545, 0.00235427, 0.100934, 0.493036, 0.190427
55661.638796376006212, 0.0035104, -0.00240777, 0.00235699, 0.100847, 0.493185, 0.190421
55661.672112743006437, 0.00350076, -0.00241389, 0.0023567, 0.100724, 0.493261, 0.190599
55661.705579200010106, 0.00351525, -0.00241261, 0.00235546, 0.10073, 0.493119, 0.190621
55661.738895352005784, 0.00351213, -0.00240984, 0.00235835, 0.100736, 0.493215, 0.190471
55661.772211709008843, 0.00350413, -0.00241101, 0.00235976, 0.10084, 0.49305, 0.190693
55661.805528076009068, 0.00350441, -0.00240797, 0.00237372, 0.101377, 0.49259, 0.191285
55661.838844409008743, 0.00351452, -0.00240463, 0.00238383, 0.101753, 0.492355, 0.191504
55661.872160709004675, 0.00352754, -0.00240081, 0.00239008, 0.101886, 0.492299, 0.191416
55661.905477047002933, 0.0035305, -0.00239942, 0.00240452, 0.10203, 0.492351, 0.191517
55661.93879338100669, 0.00353646, -0.00239716, 0.00241604, 0.102146, 0.492389, 0.191508
55661.972109747010109, 0.00351519, -0.00240378, 0.00241422, 0.102078, 0.492436, 0.191783
55662.00542604700604, 0.00356809, -0.00238142, 0.00247682, 0.102674, 0.492796, 0.191113
55662.038892376003787, 0.00359114, -0.00236642, 0.00251009, 0.103053, 0.492923, 0.190619
55662.072208743004012, 0.00358359, -0.00236654, 0.00251042, 0.103168, 0.492855, 0.190622
55662.105525043007219, 0.00359375, -0.00235994, 0.00252412, 0.103294, 0.492928, 0.190369
55662.138841376006894, 0.00358623, -0.00236165, 0.002542, 0.103402, 0.493089, 0.190345
55662.172157743007119, 0.0035848, -0.00235718, 0.00256979, 0.103578, 0.493306, 0.190092
55662.205474043003051, 0.00355861, -0.00236884, 0.00257962, 0.103562, 0.493498, 0.190359
55662.238790381008585, 0.00354039, -0.00236951, 0.00261217, 0.103794, 0.493704, 0.190195
55662.27210671400826, 0.0035222, -0.00237806, 0.00261216, 0.103816, 0.493699, 0.19041
55662.305423076009902, 0.00352436, -0.00238539, 0.00262407, 0.103672, 0.494029, 0.190509
55662.338739376005833, 0.00353953, -0.00238962, 0.00263308, 0.103509, 0.494329, 0.190538
55662.372055714004091, 0.00353962, -0.00240141, 0.00263947, 0.103283, 0.494704, 0.190744
55662.405522047003615, 0.00355718, -0.00242108, 0.00265237, 0.102756, 0.4956, 0.190946
55662.438838409005257, 0.00349556, -0.00244574, 0.00267515, 0.102285, 0.496608, 0.190995
55662.472154742004932, 0.00350796, -0.00244739, 0.00268069, 0.102164, 0.496841, 0.19095
55662.505471042008139, 0.00350439, -0.00244979, 0.00268316, 0.102088, 0.496996, 0.190925
55662.538787409008364, 0.00350759, -0.0024528, 0.002697, 0.101945, 0.497362, 0.190782
55662.572103742008039, 0.00349458, -0.00245842, 0.00269328, 0.101882, 0.497446, 0.190872
55662.605420047009829, 0.00348158, -0.00246022, 0.00269249, 0.101913, 0.497391, 0.190932
55662.638736409004196, 0.00349915, -0.00246346, 0.00270717, 0.10175, 0.497765, 0.190845
55662.672052709007403, 0.00348201, -0.00248166, 0.00271374, 0.101448, 0.498375, 0.190994
55662.705369047005661, 0.00346586, -0.0024901, 0.00270986, 0.101426, 0.498436, 0.19115
55662.7388353520073, 0.00345188, -0.00249892, 0.00270123, 0.101219, 0.498707, 0.19127
55662.772151742006827, 0.00344528, -0.00250081, 0.00269427, 0.10119, 0.498704, 0.191346
55662.805468047008617, 0.00345886, -0.00249675, 0.00269851, 0.101226, 0.498664, 0.191276
55662.838784409002983, 0.00346889, -0.00249271, 0.00270199, 0.101332, 0.498544, 0.191202
55662.87210070900619, 0.00344421, -0.00249718, 0.00269273, 0.101702, 0.498151, 0.191214
55662.90541701400798, 0.00346158, -0.0024932, 0.00269976, 0.101663, 0.49819, 0.191207
55662.938733376009623, 0.00355044, -0.00247179, 0.00273251, 0.101714, 0.498188, 0.190861
55662.972049714007881, 0.0035575, -0.00246948, 0.00274405, 0.102161, 0.497905, 0.190534
55663.005366047007556, 0.00358763, -0.00243822, 0.00276104, 0.10288, 0.497147, 0.189733
55663.038682381004037, 0.00358052, -0.00243958, 0.00275869, 0.102918, 0.497117, 0.189724
55663.071998742008873, 0.00357522, -0.00244227, 0.00276076, 0.103163, 0.497009, 0.189525
55663.105465076005203, 0.00357648, -0.00243974, 0.00276279, 0.103367, 0.496898, 0.189296
55663.138781357003609, 0.00354956, -0.00244825, 0.00275778, 0.103521, 0.496862, 0.189199
55663.172097742004553, 0.00355528, -0.00244616, 0.0027624, 0.1036, 0.496847, 0.189077
55663.205414047006343, 0.00358108, -0.00243809, 0.00277837, 0.1038, 0.496821, 0.188727
55663.238730376004241, 0.00355688, -0.00244689, 0.00277002, 0.10377, 0.496836, 0.188854
55663.272046709003916, 0.00350346, -0.00246319, 0.00274807, 0.103716, 0.496795, 0.189118
55663.305363076004141, 0.00347749, -0.00246955, 0.00274553, 0.103864, 0.496722, 0.188999
55663.338679376007349, 0.00345681, -0.00247831, 0.0027369, 0.103768, 0.49676, 0.189208
55663.371995742003492, 0.00343758, -0.00247715, 0.00274079, 0.104018, 0.496596, 0.188926
55663.405312047005282, 0.0034045, -0.00248833, 0.00272135, 0.103983, 0.49653, 0.189125
55663.438778376003029, 0.00332886, -0.00256251, 0.00268885, 0.103449, 0.497255, 0.19028
55663.472094742006448, 0.00333137, -0.00256479, 0.00268537, 0.103331, 0.497361, 0.190418
55663.505411076002929, 0.00334864, -0.00258278, 0.00268522, 0.102961, 0.4979, 0.190811
55663.538727352010028, 0.00336702, -0.00258987, 0.00269291, 0.102669, 0.498369, 0.190992
55663.572043714004394, 0.00340476, -0.00263143, 0.00270878, 0.101676, 0.500141, 0.191664
55663.605360047004069, 0.00341909, -0.00263168, 0.00271084, 0.101563, 0.500321, 0.191712
55663.638676376009244, 0.00343063, -0.00262574, 0.00270524, 0.101414, 0.500477, 0.191757
55663.671992742005386, 0.00342736, -0.0026252, 0.00270072, 0.10136, 0.50054, 0.191782
55663.705309047007177, 0.00343102, -0.0026256, 0.00270374, 0.101349, 0.500582, 0.191787
55663.738625380006852, 0.00344898, -0.0026345, 0.002717, 0.101172, 0.500994, 0.191888
55663.77194170900475, 0.0034461, -0.00263878, 0.00272177, 0.101153, 0.501078, 0.191907
55663.805408047002857, 0.00346102, -0.00263328, 0.00272162, 0.101152, 0.501054, 0.191874
55663.838724380009808, 0.00351504, -0.002622, 0.00273376, 0.100733, 0.501702, 0.192154
55663.872040709007706, 0.00352587, -0.00262275, 0.00273715, 0.100716, 0.501748, 0.192175
55663.905357076007931, 0.00352741, -0.00262296, 0.00273483, 0.100708, 0.501765, 0.192139
55663.938673409007606, 0.00356614, -0.0026031, 0.00272466, 0.100543, 0.502011, 0.192149
55663.971989709003537, 0.00354395, -0.00261242, 0.00272381, 0.10065, 0.501898, 0.192082
55664.005306047009071, 0.00350033, -0.00264733, 0.00274841, 0.101391, 0.501187, 0.191431
55664.038621664003585, 0.00351795, -0.00264798, 0.0027774, 0.101959, 0.500614, 0.191022
55664.071937260006962, 0.00356356, -0.00261234, 0.00278435, 0.102191, 0.50043, 0.190773
55664.105252798006404, 0.00358303, -0.00260545, 0.00278643, 0.102137, 0.500535, 0.190907
55664.138718390007853, 0.00357561, -0.00261023, 0.00279108, 0.102376, 0.500333, 0.190604
55664.172033924005518, 0.00356968, -0.00261218, 0.00279047, 0.102387, 0.500307, 0.19058
55664.205349534007837, 0.00355818, -0.00261506, 0.00278906, 0.102535, 0.500257, 0.190267
55664.23866506300692, 0.00355208, -0.00261756, 0.00278898, 0.102571, 0.500226, 0.19017
55664.271980630008329, 0.00354089, -0.00262055, 0.00278767, 0.102509, 0.5002, 0.190228
55664.305296197009739, 0.00351491, -0.00262224, 0.00278931, 0.102711, 0.499988, 0.189953
55664.338611759005289, 0.00348192, -0.00262795, 0.00278757, 0.102913, 0.499781, 0.189518
55664.371927360007248, 0.00348959, -0.0026289, 0.00279263, 0.10287, 0.499693, 0.189664
55664.405242898006691, 0.00350205, -0.00262829, 0.00279846, 0.102861, 0.499613, 0.189854
55664.438558522007952, 0.00351354, -0.00262788, 0.00279986, 0.102769, 0.499651, 0.190001
55664.472024057009548, 0.00352801, -0.00263333, 0.00279675, 0.102424, 0.499915, 0.190425
55664.505339624003682, 0.00352614, -0.00263993, 0.00279909, 0.10223, 0.499864, 0.190599
55664.538655191005091, 0.00351113, -0.00265106, 0.00280199, 0.102033, 0.499627, 0.190708
55664.571970758006501, 0.00348606, -0.00265878, 0.00280132, 0.101938, 0.499398, 0.190653
55664.605286297010025, 0.00347963, -0.00266364, 0.00280151, 0.101858, 0.499379, 0.190629
55664.638601893006125, 0.00342839, -0.00267614, 0.00280001, 0.101733, 0.498806, 0.190484
55664.671917426006985, 0.00336999, -0.00269476, 0.00279788, 0.101748, 0.498228, 0.189726
55664.705233027008944, 0.00331787, -0.00271359, 0.00279734, 0.101803, 0.49771, 0.188745
55664.738548560009804, 0.0032278, -0.00273776, 0.00279933, 0.10202, 0.49651, 0.18724
55664.771864161004487, 0.00311831, -0.00275854, 0.00279894, 0.102206, 0.495062, 0.185962
55664.805179699003929, 0.00311433, -0.00275977, 0.00279895, 0.102207, 0.495027, 0.185893
55664.838645291005378, 0.00304734, -0.00277284, 0.00280051, 0.102436, 0.494106, 0.184735
55664.871960858006787, 0.00296463, -0.00278891, 0.00280843, 0.103044, 0.492508, 0.182542
55664.905276368008344, 0.00293972, -0.00279185, 0.00280239, 0.103086, 0.492576, 0.182334
55664.938591964004445, 0.00291876, -0.00279684, 0.00279938, 0.103069, 0.49254, 0.182023
55664.971907526007271, 0.00290166, -0.00277866, 0.00281677, 0.103976, 0.491052, 0.180967
55665.005223098007264, 0.00288905, -0.00276815, 0.00282782, 0.104566, 0.489791, 0.1802
55665.038539375003893, 0.00285188, -0.00276914, 0.00282456, 0.104922, 0.489715, 0.17935
55665.071855742004118, 0.0028494, -0.00276758, 0.00282412, 0.104959, 0.48975, 0.179393
55665.105172075003793, 0.00276819, -0.00278028, 0.00281288, 0.105084, 0.489256, 0.178097
55665.138488599004631, 0.00269554, -0.00278818, 0.00280566, 0.105472, 0.488743, 0.176526
55665.17195470900333, 0.0026831, -0.00278686, 0.00280595, 0.105601, 0.488502, 0.176329
55665.205271018006897, 0.00268722, -0.00278322, 0.00280835, 0.105676, 0.488487, 0.176373
55665.238587380008539, 0.00265045, -0.00278353, 0.00279922, 0.105916, 0.488511, 0.175552
55665.271903709006438, 0.00264676, -0.0027935, 0.00279365, 0.105704, 0.488393, 0.175488
55665.305220075009856, 0.00264415, -0.00279412, 0.00279182, 0.105683, 0.488437, 0.175488
55665.338536409006338, 0.00266131, -0.00280763, 0.00279141, 0.105284, 0.488508, 0.175891
55665.371852875003242, 0.00266275, -0.00281067, 0.00279296, 0.105224, 0.488249, 0.175927
55665.405169047007803, 0.00269944, -0.00282151, 0.00280822, 0.104882, 0.488075, 0.176594
55665.438485409009445, 0.00270032, -0.00282349, 0.00281031, 0.104861, 0.487796, 0.176663
55665.471801713007153, 0.00270269, -0.00283286, 0.00281602, 0.104651, 0.487732, 0.177034
55665.505118075008795, 0.00270924, -0.00283405, 0.00281844, 0.104603, 0.487841, 0.177095
55665.538584380003158, 0.00272934, -0.00284412, 0.00283177, 0.10436, 0.488067, 0.177505
55665.5719007420048, 0.00275112, -0.0028408, 0.00284409, 0.104419, 0.487723, 0.177662
55665.605220066005131, 0.00276581, -0.00284493, 0.00285628, 0.104304, 0.487865, 0.177846
55665.638533380006265, 0.00276051, -0.00286141, 0.00284923, 0.104108, 0.487638, 0.178032
55665.671850328006258, 0.00276733, -0.00286221, 0.00285412, 0.104099, 0.487563, 0.178068
55665.705166047009698, 0.00278594, -0.00286586, 0.00286762, 0.104005, 0.48769, 0.178109
55665.738482409004064, 0.00278249, -0.00287911, 0.00288632, 0.103838, 0.48767, 0.178288
55665.771798756009957, 0.00278924, -0.00288057, 0.00288528, 0.10381, 0.487727, 0.178314
55665.805115075003414, 0.00287654, -0.00288208, 0.00290769, 0.104001, 0.487393, 0.17826
55665.838431347008736, 0.00291143, -0.00287292, 0.00292204, 0.104061, 0.488633, 0.177759
55665.871897709002951, 0.00298289, -0.00286452, 0.00293079, 0.104135, 0.489136, 0.177512
55665.90521407500637, 0.00300589, -0.00286938, 0.00294521, 0.104036, 0.489349, 0.177469
55665.938530409010127, 0.0030351, -0.00287052, 0.00296025, 0.104025, 0.489522, 0.177339
55665.971846999003901, 0.00307309, -0.00286661, 0.00297445, 0.103996, 0.48982, 0.177163
55666.005163075009477, 0.00312205, -0.00286055, 0.00299325, 0.10406, 0.490186, 0.176863
55666.038479409005959, 0.00312393, -0.002861, 0.00299513, 0.104046, 0.490215, 0.176851
55666.071795742005634, 0.0031539, -0.0028568, 0.00300798, 0.104028, 0.49052, 0.176658
55666.105112075005309, 0.00320009, -0.00284845, 0.00302436, 0.1042, 0.490907, 0.176309
55666.138428409009066, 0.00322742, -0.00284734, 0.00303486, 0.104118, 0.491101, 0.176215
55666.171744742008741, 0.0032544, -0.00284651, 0.00304717, 0.103972, 0.491385, 0.176104
55666.205061075008416, 0.00330658, -0.00284382, 0.00307279, 0.103807, 0.491902, 0.175828
55666.238527380010055, 0.00336799, -0.00283741, 0.00310038, 0.103653, 0.492568, 0.175481
55666.27184371300973, 0.00339748, -0.00283535, 0.00311223, 0.103504, 0.492898, 0.175333
55666.305164599005366, 0.00344327, -0.00282319, 0.00313119, 0.103361, 0.493486, 0.175028
55666.338476375007303, 0.00347743, -0.00282112, 0.00315275, 0.103314, 0.493814, 0.174835
55666.371792742007528, 0.00347263, -0.00282554, 0.00315355, 0.103212, 0.493722, 0.174817
55666.405109075007204, 0.00345025, -0.00283881, 0.00315442, 0.103015, 0.493364, 0.174795
55666.43842534700525, 0.00343413, -0.00285214, 0.00316838, 0.102839, 0.493229, 0.174688
55666.47174174200336, 0.00342782, -0.00285755, 0.00316939, 0.102709, 0.493151, 0.174592
55666.505058075003035, 0.00342925, -0.00285979, 0.00317407, 0.102696, 0.493162, 0.174596
55666.538374409006792, 0.00343628, -0.00286387, 0.00318016, 0.102686, 0.49311, 0.174609
55666.571840713004349, 0.00342072, -0.00287641, 0.0031794, 0.102801, 0.492579, 0.174744
55666.605157075005991, 0.00341329, -0.00288252, 0.00318008, 0.102806, 0.492379, 0.174746
55666.638473409009748, 0.00341016, -0.0028858, 0.00318025, 0.10283, 0.49225, 0.174769
55666.671789742009423, 0.00340421, -0.00288825, 0.00317887, 0.10281, 0.492092, 0.174699
55666.705106042005355, 0.00340949, -0.0028878, 0.00318622, 0.102738, 0.492189, 0.174747
55666.738422380003612, 0.00342111, -0.00288617, 0.00318531, 0.102744, 0.492221, 0.174712
55666.771738713003288, 0.00341249, -0.00288592, 0.00318367, 0.102764, 0.49215, 0.174636
55666.805055047007045, 0.00341311, -0.00288635, 0.00318591, 0.102796, 0.492114, 0.174692
55666.83837138000672, 0.00339745, -0.00289109, 0.00318792, 0.102845, 0.49178, 0.174567
55666.871687713006395, 0.00337369, -0.00289492, 0.00319198, 0.102732, 0.491466, 0.17439
55666.905004042004293, 0.00335868, -0.00289217, 0.00319152, 0.102391, 0.4915, 0.174326
55666.938470408007561, 0.0033504, -0.00289076, 0.00319217, 0.102337, 0.491499, 0.174427
55666.971786708003492, 0.00333438, -0.00289494, 0.00319396, 0.102456, 0.491079, 0.174247
55667.005103042007249, 0.00332167, -0.00290035, 0.00320267, 0.102649, 0.4905, 0.173935
55667.038419375006924, 0.00332975, -0.00290291, 0.00320561, 0.102809, 0.490448, 0.173883
55667.071735742007149, 0.00332257, -0.00290465, 0.00320744, 0.10288, 0.490277, 0.173843
55667.105052075006824, 0.00331223, -0.00290817, 0.00321118, 0.103041, 0.490021, 0.173611
55667.1383684080065, 0.00332149, -0.00290934, 0.00321106, 0.10312, 0.490259, 0.173611
55667.171684742002981, 0.00333455, -0.00291088, 0.00321458, 0.103321, 0.490464, 0.173529
55667.205001047004771, 0.00333629, -0.00291285, 0.00321495, 0.103408, 0.490626, 0.173508
55667.238317347007978, 0.00332068, -0.00292091, 0.00322576, 0.104257, 0.490533, 0.172335
55667.271783742005937, 0.00330256, -0.00292475, 0.0032279, 0.104725, 0.490421, 0.171365
55667.305100042009144, 0.00332166, -0.00292291, 0.00322466, 0.104582, 0.491059, 0.171941
55667.338416408005287, 0.00329116, -0.00292213, 0.0032196, 0.104773, 0.491159, 0.172101
55667.371732708008494, 0.00328779, -0.00292226, 0.00321915, 0.104785, 0.491144, 0.172048
55667.405049075008719, 0.00330371, -0.00291939, 0.00322191, 0.104659, 0.490937, 0.172372
55667.438365380003233, 0.00329966, -0.00291826, 0.00322133, 0.10462, 0.49103, 0.172605
55667.471681742004876, 0.00327315, -0.00291675, 0.0032083, 0.104765, 0.491924, 0.1727
55667.504998075004551, 0.0032616, -0.00291748, 0.00320521, 0.104721, 0.492227, 0.172782
55667.538314375007758, 0.00329795, -0.00291943, 0.0032175, 0.104466, 0.491924, 0.172669
55667.571630713006016, 0.00335631, -0.00291993, 0.00324228, 0.104102, 0.491915, 0.173419
55667.605097075007507, 0.00336648, -0.00292374, 0.00324764, 0.103928, 0.492213, 0.173587
55667.638413408007182, 0.00337873, -0.00292481, 0.00325297, 0.103892, 0.492056, 0.1735
55667.671729742003663, 0.00342297, -0.00293153, 0.00327639, 0.103794, 0.491093, 0.172749
55667.705046018003486, 0.00344198, -0.00293205, 0.00328395, 0.103804, 0.490561, 0.172495
55667.738362408003013, 0.00342633, -0.00292363, 0.00327813, 0.103998, 0.489541, 0.172484
55667.771678713004803, 0.00344939, -0.00293297, 0.00329877, 0.104037, 0.488239, 0.171408
55667.804995794009301, 0.00345272, -0.00294001, 0.00330764, 0.10396, 0.488128, 0.17114
55667.83831140800612, 0.00344578, -0.00294712, 0.00331625, 0.103869, 0.488036, 0.171127
55667.871627746004378, 0.00344161, -0.00294818, 0.00331779, 0.103864, 0.487925, 0.171044
55667.904944089008495, 0.00342342, -0.00295193, 0.0033196, 0.103823, 0.48786, 0.170968
55667.938260380004067, 0.0033984, -0.00295243, 0.00332039, 0.103818, 0.487319, 0.17109
55667.971726742005558, 0.00338457, -0.00295588, 0.00332206, 0.103734, 0.487545, 0.171141
55668.005043042008765, 0.00337145, -0.00295656, 0.00332099, 0.103739, 0.487351, 0.171144
55668.038359380007023, 0.00337132, -0.00295645, 0.00332105, 0.103742, 0.487331, 0.171143
55668.071675742008665, 0.00333632, -0.00295995, 0.00331983, 0.103711, 0.48708, 0.171239
55668.10499207500834, 0.00333093, -0.00295902, 0.00331975, 0.103743, 0.486816, 0.171367
55668.138308408008015, 0.00333079, -0.00296084, 0.00332026, 0.10372, 0.487028, 0.171136
55668.171624713009805, 0.00332922, -0.00296051, 0.00331932, 0.103732, 0.486988, 0.171191
55668.204941075004172, 0.00332627, -0.00296071, 0.00331889, 0.103736, 0.486937, 0.171193
55668.238257380005962, 0.00332183, -0.00295524, 0.0033177, 0.103871, 0.486111, 0.1715
55668.271573742007604, 0.00332841, -0.0029557, 0.0033173, 0.103887, 0.486205, 0.171264
55668.305043189007847, 0.00328763, -0.00295885, 0.00330901, 0.104059, 0.484503, 0.171467
55668.338356408006803, 0.00328784, -0.00295826, 0.00330916, 0.104064, 0.48448, 0.171518
55668.371672742003284, 0.00328877, -0.00295372, 0.00330813, 0.104185, 0.484097, 0.171508
55668.404989042006491, 0.00329774, -0.00294641, 0.00331031, 0.104605, 0.481259, 0.17254
55668.438305375006166, 0.00330914, -0.00293986, 0.00331421, 0.104801, 0.480045, 0.17319
55668.471621713004424, 0.00331326, -0.0029397, 0.0033139, 0.104821, 0.479995, 0.173113
55668.504938075006066, 0.0033044, -0.0029393, 0.00332212, 0.104802, 0.479825, 0.173822
55668.538254375009274, 0.0033109, -0.0029386, 0.00332317, 0.104881, 0.479654, 0.173761
55668.571570713007532, 0.00331572, -0.00293695, 0.00332269, 0.104946, 0.479574, 0.173582
55668.604887075009174, 0.00329813, -0.00294047, 0.00331819, 0.104859, 0.479753, 0.173588
55668.638203408008849, 0.00330358, -0.00294109, 0.00332156, 0.104902, 0.479674, 0.173651
55668.671669708004629, 0.00331743, -0.00293878, 0.00332278, 0.105007, 0.479528, 0.173523
55668.704986075004854, 0.00330712, -0.00294155, 0.00332446, 0.104999, 0.479542, 0.173606
55668.738302380006644, 0.00330906, -0.00294121, 0.00332501, 0.105019, 0.479522, 0.173583
55668.771618708007736, 0.00330427, -0.00294979, 0.00335496, 0.105234, 0.479634, 0.173565
55668.804935075007961, 0.00330082, -0.00296069, 0.0033581, 0.105168, 0.479781, 0.173789
55668.838251408007636, 0.00331459, -0.00295281, 0.00338179, 0.105424, 0.479705, 0.17334
55668.871567713009426, 0.00332206, -0.00294878, 0.00339555, 0.105642, 0.479622, 0.172993
55668.904884042007325, 0.00331722, -0.00294918, 0.00342335, 0.10595, 0.479664, 0.172477
55668.938200408003468, 0.0033155, -0.00295189, 0.00344307, 0.106071, 0.479808, 0.172167
55668.971516713005258, 0.00331018, -0.00295402, 0.00345472, 0.10616, 0.479895, 0.171945
55669.004983022008673, 0.00327971, -0.00293921, 0.00351359, 0.10677, 0.479765, 0.17049
55669.038299408006424, 0.003275, -0.00293999, 0.0035344, 0.106916, 0.47988, 0.170049
55669.071615742002905, 0.0032729, -0.00292724, 0.00355896, 0.107144, 0.479694, 0.169437
55669.104932075009856, 0.00326352, -0.00292872, 0.00358232, 0.107172, 0.479905, 0.168964
55669.138248375005787, 0.00325202, -0.00291519, 0.00361722, 0.1075, 0.479713, 0.16804
55669.171564741009206, 0.00324553, -0.00291324, 0.00364562, 0.10774, 0.479787, 0.167294
55669.204881075005687, 0.00326195, -0.00290652, 0.00363995, 0.107657, 0.479608, 0.167508
55669.238197346006928, 0.0032615, -0.00291589, 0.00363407, 0.107453, 0.479904, 0.167692
55669.271513741005037, 0.00325759, -0.00290882, 0.00363953, 0.107402, 0.479779, 0.167555
55669.304833137008245, 0.0032864, -0.00287229, 0.00365802, 0.107544, 0.478841, 0.167216
55669.33814640800847, 0.0033063, -0.00283978, 0.00365951, 0.10744, 0.477981, 0.167325
55669.371612741007993, 0.00329651, -0.00282679, 0.00364101, 0.107409, 0.477467, 0.16783
55669.404929075004475, 0.0032804, -0.00279484, 0.00364511, 0.107562, 0.476441, 0.167742
55669.438245351004298, 0.00331157, -0.00278953, 0.00366173, 0.107607, 0.476414, 0.16739
55669.47156171300594, 0.00335131, -0.00278796, 0.00367677, 0.107736, 0.47645, 0.16712
55669.504878075007582, 0.00337254, -0.00278026, 0.0036905, 0.107771, 0.476319, 0.166811
55669.538194408007257, 0.00339979, -0.00278493, 0.00369401, 0.107664, 0.476562, 0.166786
55669.571510708003188, 0.00341828, -0.00279904, 0.00369489, 0.107583, 0.477071, 0.166798
55669.604827075003413, 0.00341467, -0.00279554, 0.00368253, 0.107495, 0.476905, 0.167157
55669.638143375006621, 0.00341223, -0.00279606, 0.00366831, 0.107404, 0.47687, 0.167559
55669.67145974101004, 0.00342213, -0.00279663, 0.00365969, 0.107326, 0.476886, 0.167838
55669.704926137004804, 0.00337749, -0.0027982, 0.00363422, 0.107371, 0.476726, 0.168472
55669.738242351006193, 0.00334269, -0.00278553, 0.00361298, 0.107427, 0.476116, 0.169029
55669.77155874100572, 0.00330813, -0.00278797, 0.00360285, 0.10738, 0.476161, 0.169173
55669.804875075009477, 0.00326575, -0.00280369, 0.00359143, 0.107294, 0.476649, 0.169296
55669.838191370006825, 0.00322518, -0.00281142, 0.00355963, 0.107279, 0.476671, 0.170126
55669.87150774600741, 0.00317183, -0.00282851, 0.00352642, 0.1072, 0.477027, 0.170907
55669.904824075005308, 0.00313537, -0.00284495, 0.00349991, 0.107021, 0.477478, 0.171483
55669.938140408004983, 0.00310046, -0.00284015, 0.00347302, 0.106956, 0.47715, 0.172124
55669.971456713006773, 0.00307488, -0.00283216, 0.00344861, 0.106928, 0.476716, 0.172743
55670.004773075008416, 0.00301228, -0.00282738, 0.00340982, 0.106858, 0.476282, 0.173648
55670.038089408008091, 0.00294943, -0.00282357, 0.00337209, 0.106801, 0.47588, 0.174518
55670.071555708003871, 0.00291895, -0.00282288, 0.00334457, 0.106751, 0.475669, 0.17522
55670.104872075004096, 0.00290644, -0.00281478, 0.00333372, 0.106785, 0.475301, 0.175494
55670.13818837900908, 0.00289516, -0.00280801, 0.00332257, 0.10685, 0.474953, 0.175791
55670.171504746009305, 0.00289062, -0.00279987, 0.00331236, 0.106905, 0.474584, 0.176084
55670.204821075007203, 0.00287666, -0.00279498, 0.00329924, 0.10694, 0.474299, 0.176423
55670.238137375003134, 0.00283951, -0.00278581, 0.00327913, 0.106952, 0.473833, 0.17685
55670.271453741006553, 0.00277142, -0.00278055, 0.00323438, 0.106853, 0.473362, 0.17786
55670.304773022005975, 0.00273787, -0.0027741, 0.0031906, 0.106849, 0.47282, 0.17902
55670.338086375006242, 0.00274002, -0.00276025, 0.00317672, 0.106951, 0.472242, 0.179441
55670.371402708005917, 0.00273438, -0.00274615, 0.00316745, 0.107065, 0.471678, 0.179697
55670.40486907500599, 0.00271241, -0.0027404, 0.00314625, 0.107083, 0.47132, 0.180231
55670.438185408005666, 0.00268147, -0.00272889, 0.00312289, 0.107079, 0.47078, 0.180762
55670.471501708008873, 0.00266124, -0.00272355, 0.00310629, 0.107026, 0.470521, 0.181143
55670.504818046007131, 0.00264544, -0.00271018, 0.00308683, 0.106969, 0.469997, 0.181608
55670.538134408008773, 0.00262053, -0.00270103, 0.00305977, 0.106839, 0.469595, 0.182246
55670.571450746007031, 0.00259094, -0.00270126, 0.00303671, 0.106606, 0.469583, 0.182718
55670.604767046002962, 0.00258775, -0.00269065, 0.00301568, 0.106443, 0.469219, 0.183249
55670.638083375008136, 0.0025769, -0.00268156, 0.00299609, 0.106338, 0.468873, 0.18374
55670.671399684004427, 0.00257536, -0.00267775, 0.00298166, 0.106295, 0.468689, 0.184164
55670.704716041007487, 0.00257062, -0.00266, 0.0029719, 0.106393, 0.467973, 0.184479
55670.73818240800756, 0.00256119, -0.00264468, 0.00296182, 0.106425, 0.467382, 0.184753
55670.771499270005734, 0.00255191, -0.0026304, 0.00295282, 0.106415, 0.466861, 0.184986
55670.804815075003717, 0.00254355, -0.00261285, 0.00293695, 0.106317, 0.466256, 0.185403
55670.838131408003392, 0.00253762, -0.00259129, 0.0029191, 0.10617, 0.465543, 0.185882
55670.871447741003067, 0.00250769, -0.00254861, 0.00290264, 0.106196, 0.463989, 0.186251
55670.904764075006824, 0.00246772, -0.00249718, 0.00288735, 0.10632, 0.462069, 0.186581
55670.938080375010031, 0.00246254, -0.00251028, 0.00286662, 0.106151, 0.462521, 0.187192
55670.971396708009706, 0.00246956, -0.00254399, 0.00288251, 0.106208, 0.463687, 0.186701
55671.004713046007964, 0.0024658, -0.00256522, 0.00288729, 0.106246, 0.464399, 0.186515
55671.038029379007639, 0.00250703, -0.00257614, 0.0028971, 0.106384, 0.464777, 0.186371
55671.07134568400943, 0.00254209, -0.00258743, 0.00290698, 0.106538, 0.465151, 0.186206
55671.104812046003644, 0.00256737, -0.00259038, 0.00291862, 0.106689, 0.465263, 0.185938
55671.138128375008819, 0.00258975, -0.00259582, 0.00292604, 0.106761, 0.465473, 0.185791
55671.171444741004962, 0.00260815, -0.00259526, 0.00293615, 0.106815, 0.46549, 0.185526
55671.204761075008719, 0.00260718, -0.00260453, 0.00294856, 0.106722, 0.465928, 0.185109
55671.238077408008394, 0.00261166, -0.00260603, 0.00294777, 0.106672, 0.466027, 0.185152
55671.271393741008069, 0.00263963, -0.00261158, 0.00296617, 0.106769, 0.466302, 0.184655
55671.30471007500455, 0.00267118, -0.00261434, 0.00298338, 0.106854, 0.466475, 0.184219
55671.338026375007757, 0.00267304, -0.0026132, 0.00297912, 0.106884, 0.466413, 0.184368
55671.371343422004429, 0.00269299, -0.00260495, 0.00298838, 0.10692, 0.466161, 0.184151
55671.404659041007108, 0.00270314, -0.00261969, 0.00301529, 0.106861, 0.466799, 0.18336
55671.438125408007181, 0.0027083, -0.00261844, 0.00302001, 0.10681, 0.466775, 0.183235
55671.471441741006856, 0.00271762, -0.00261577, 0.00302752, 0.106811, 0.466716, 0.183036
55671.504758074006531, 0.00272624, -0.00261614, 0.0030349, 0.10682, 0.466765, 0.182842
55671.538074379008322, 0.00271827, -0.00262344, 0.00307217, 0.106818, 0.4671, 0.181682
55671.57139070800622, 0.00271999, -0.00262469, 0.00308319, 0.106745, 0.467167, 0.181354
55671.604707074009639, 0.00270213, -0.00263105, 0.00306946, 0.106661, 0.467319, 0.181683
55671.63802340800612, 0.00270174, -0.00263111, 0.00308035, 0.106608, 0.467341, 0.181347
55671.671339741005795, 0.00270394, -0.0026286, 0.00309617, 0.106497, 0.46729, 0.180853
55671.704656041009002, 0.00270399, -0.00262973, 0.00309738, 0.106423, 0.467319, 0.180785
55671.73797237900726, 0.00269242, -0.00264121, 0.00308742, 0.106392, 0.467655, 0.181033
55671.771288717005518, 0.00268187, -0.00265323, 0.00308287, 0.106373, 0.468005, 0.181143
55671.804755074008426, 0.00268361, -0.00265867, 0.00308203, 0.106415, 0.468177, 0.181207
55671.838071374004357, 0.00269069, -0.00266021, 0.0030814, 0.106475, 0.468237, 0.181277
55671.871387703009532, 0.00266578, -0.00267151, 0.00306019, 0.106517, 0.468501, 0.181727
55671.904704074004258, 0.0026148, -0.00270737, 0.00303247, 0.106567, 0.469424, 0.182313
55671.938020374007465, 0.00259327, -0.00272384, 0.00301604, 0.106636, 0.469845, 0.182681
55671.971336751004856, 0.0025707, -0.00273813, 0.00298896, 0.106635, 0.470167, 0.183171
55672.004653074007365, 0.00246972, -0.00279093, 0.00291012, 0.106621, 0.471328, 0.184473
55672.037969408003846, 0.00249006, -0.00281446, 0.00287672, 0.106693, 0.471924, 0.185187
55672.071285679005086, 0.00248313, -0.00281679, 0.00286623, 0.10674, 0.471956, 0.185365
55672.104602046005311, 0.0024832, -0.00282332, 0.00286303, 0.106735, 0.472111, 0.185423
55672.138068412008579, 0.00246846, -0.00284691, 0.00282854, 0.106475, 0.472606, 0.18574
55672.171384941008, 0.00247827, -0.00284956, 0.00282328, 0.106425, 0.472673, 0.185788
55672.204701074006152, 0.00247623, -0.00284444, 0.00281447, 0.106445, 0.472519, 0.185892
55672.23801740800991, 0.00247248, -0.0028429, 0.00280754, 0.10648, 0.47245, 0.185994
55672.271333741009585, 0.002468, -0.0028342, 0.00280084, 0.106559, 0.472197, 0.186104
55672.30465007400926, 0.00248133, -0.00282633, 0.00277755, 0.106482, 0.471974, 0.186317
55672.337966408005741, 0.00248101, -0.0028253, 0.00278947, 0.106441, 0.47202, 0.186108
55672.371282712003449, 0.00252228, -0.00281541, 0.00277805, 0.106552, 0.471719, 0.186422
55672.404599046007206, 0.00256352, -0.00278625, 0.00275874, 0.106597, 0.470967, 0.186719
55672.437915408008848, 0.00258891, -0.00278145, 0.00274763, 0.106519, 0.470886, 0.186824
55672.471231712006556, 0.00259357, -0.00277629, 0.00273794, 0.106493, 0.470745, 0.186943
55672.504698074008047, 0.00260432, -0.00274338, 0.0027142, 0.106551, 0.469814, 0.187318
55672.538014408004528, 0.00265534, -0.0027166, 0.00269869, 0.106504, 0.469187, 0.187553
55672.571330708007736, 0.0026636, -0.00270401, 0.00268511, 0.10646, 0.468865, 0.187731
55672.604647074003879, 0.00267187, -0.00269705, 0.00267773, 0.106437, 0.468687, 0.187849
55672.637963374007086, 0.00267573, -0.00268057, 0.00266777, 0.106406, 0.468264, 0.187974
55672.671279741007311, 0.00267767, -0.0026684, 0.0026594, 0.10636, 0.467966, 0.188073
55672.704596074006986, 0.00268398, -0.00264854, 0.002657, 0.106409, 0.467391, 0.188167
55672.737912408003467, 0.00268106, -0.00263364, 0.00264169, 0.106466, 0.466848, 0.188596
55672.771228679004707, 0.00267419, -0.00262968, 0.00263292, 0.106455, 0.466698, 0.188786
55672.804545046004932, 0.00266494, -0.00264041, 0.00262936, 0.106389, 0.467032, 0.18878
55672.838011374005873, 0.00266072, -0.0026463, 0.00263906, 0.106456, 0.467192, 0.188552
55672.87132770800963, 0.00266471, -0.00263138, 0.00265309, 0.106671, 0.46668, 0.18838
55672.904644074005773, 0.00264903, -0.00261907, 0.0026708, 0.106849, 0.466277, 0.187954
55672.937960408009531, 0.00265011, -0.00262088, 0.00267664, 0.106961, 0.466284, 0.187889
55672.971276708005462, 0.00260404, -0.00260196, 0.00269703, 0.107155, 0.465683, 0.187213
55673.004593041005137, 0.00256225, -0.00261058, 0.00270603, 0.107297, 0.465881, 0.18685
55673.037909408005362, 0.00254601, -0.00263348, 0.00271464, 0.107281, 0.46659, 0.186502
55673.07122571200307, 0.00254407, -0.00263838, 0.00272271, 0.107287, 0.466766, 0.186243
55673.10454201700486, 0.00254942, -0.00263852, 0.00273464, 0.107391, 0.466784, 0.185979
55673.137858408008469, 0.00255752, -0.00262936, 0.00273711, 0.107506, 0.466494, 0.186037
55673.171174712006177, 0.00255342, -0.00263233, 0.00274491, 0.107581, 0.466587, 0.185843
55673.204641012009233, 0.00252911, -0.00264612, 0.00275717, 0.107625, 0.46701, 0.185385
55673.237957408004149, 0.00252729, -0.00264579, 0.0027598, 0.107641, 0.467003, 0.18531
55673.271273741003824, 0.00252492, -0.00267358, 0.00277269, 0.107651, 0.467872, 0.184905
55673.304590074003499, 0.00251865, -0.00267568, 0.00277675, 0.107666, 0.467941, 0.184764
55673.337906360007764, 0.00252868, -0.00267257, 0.00277716, 0.107722, 0.467855, 0.184863
55673.371222741006932, 0.00256743, -0.00265853, 0.00277695, 0.107758, 0.467468, 0.185077
55673.404539074006607, 0.00257121, -0.00263932, 0.00277742, 0.10785, 0.466907, 0.185191
55673.437855374009814, 0.00263308, -0.00264245, 0.00276878, 0.107769, 0.467055, 0.185629
55673.471171712008072, 0.00263181, -0.00265189, 0.00276352, 0.107733, 0.467311, 0.185741
55673.504488074009714, 0.00268234, -0.00265713, 0.00275971, 0.1076, 0.467519, 0.185839
55673.537954408006044, 0.00268814, -0.00265905, 0.0027507, 0.107527, 0.467556, 0.185991
55673.571274103007454, 0.00268998, -0.00266495, 0.00274645, 0.107484, 0.467712, 0.186041
55673.604587041008926, 0.00269547, -0.00266916, 0.00274623, 0.107483, 0.467827, 0.186072
55673.637903407005069, 0.00270812, -0.0026605, 0.00275101, 0.107527, 0.467625, 0.186081
55673.671219741008827, 0.00272082, -0.002659, 0.00274452, 0.107551, 0.46757, 0.186369
55673.704536074008502, 0.00272225, -0.00265805, 0.00274795, 0.107528, 0.467569, 0.186232
55673.737852407008177, 0.00273396, -0.00265052, 0.00275489, 0.107476, 0.467441, 0.185975
55673.771168707004108, 0.00273285, -0.00264869, 0.00275974, 0.107449, 0.467424, 0.185801
55673.804485022003064, 0.00272619, -0.00265205, 0.00276091, 0.107409, 0.467501, 0.185643
55673.837801407004008, 0.00271708, -0.00265803, 0.00275965, 0.107393, 0.467617, 0.185585
55673.871267741007614, 0.00272457, -0.00266544, 0.00274916, 0.107479, 0.467714, 0.185955
55673.904584041003545, 0.00273955, -0.00266465, 0.0027421, 0.107536, 0.467682, 0.186235
55673.937900407006964, 0.00274916, -0.00266643, 0.00273661, 0.107601, 0.467709, 0.1865
