time, bias_gyr_x, bias_gyr_y, bias_gyr_z, bias_acc_x, bias_acc_y, bias_acc_z
-1, 0, 0, 0, 0, 0, 0
-1, 0, 0, 0, 0, 0, 0
608.30637816099999782, 0, 0, 0, 0, 0, 0
608.33969446100002187, -0.00211365, 0.00717355, -0.00292516, -3.05073e-05, -4.51925e-05, 0.000122865
608.37301079899998513, -0.00288495, -0.00234283, -0.00172549, 0.00244226, -6.92431e-05, -0.00047442
608.40632713200000126, -0.00316707, -0.00183783, 0.00055839, -0.00227108, 6.74033e-05, 0.000499582
608.43964346500001739, -0.00224568, -0.00227907, 0.000423367, -0.0105304, 5.55162e-05, 0.00243591
608.4729598269999542, -0.00221615, -0.00164152, -0.000172957, -0.027354, -0.000143305, 0.00645034
608.50627616099995976, -0.00193063, -0.00212751, 1.87333e-05, -0.0438619, -0.000328434, 0.0102561
608.53959246499994151, -0.00205548, -0.00271134, -0.000213275, -0.0473817, -0.00037356, 0.011059
608.5730588459999808, -0.00220205, -0.00279253, -0.000341651, -0.0569918, -0.000509075, 0.0132778
608.60637516099995992, -0.00193085, -0.00225706, -0.000359095, -0.0802561, -0.000799258, 0.0187515
608.63969149399997605, -0.0017141, -0.00191157, -0.000431346, -0.0889884, -0.000902873, 0.0208633
608.67300779899994723, -0.00151456, -0.0019784, -0.000565118, -0.0860983, -0.000866043, 0.0202097
608.70632409899997128, -0.00147033, -0.0021325, -0.000386752, -0.0879479, -0.000891611, 0.0206636
608.73964046100002179, -0.00133398, -0.00213904, -0.000380898, -0.0882756, -0.00089739, 0.0207513
608.77295682700002999, -0.00132756, -0.00210076, -0.00038584, -0.089277, -0.00091248, 0.0209945
608.80627316100003554, -0.00133393, -0.00204347, -0.000462703, -0.0913072, -0.000943344, 0.0214814
608.83958943200002523, -0.00125827, -0.00198869, -0.000513753, -0.0934234, -0.000975548, 0.0219989
608.87290582699995412, -0.00136661, -0.00203892, -0.000548269, -0.0931158, -0.000972466, 0.0219127
608.9063721649999934, -0.00138714, -0.00206935, -0.00060497, -0.0936698, -0.000980184, 0.0220351
608.93968849400005183, -0.00138256, -0.00209203, -0.000616818, -0.0937641, -0.000981178, 0.0220515
608.9730047939999622, -0.00141895, -0.00208746, -0.000622621, -0.0951601, -0.000996363, 0.0223985
609.00632116099995983, -0.00143337, -0.0020602, -0.000610146, -0.0966189, -0.00100653, 0.0227731
609.03963749399997596, -0.00132243, -0.00191439, -0.000489053, -0.0995168, -0.00101852, 0.0235721
609.07295507499998166, -0.00124376, -0.00180743, -0.000457437, -0.0998533, -0.00102303, 0.0236734
609.10627013199996327, -0.00127796, -0.00179561, -0.000472319, -0.0991486, -0.00102376, 0.0234383
609.1395864649999794, -0.00129347, -0.00179801, -0.000507369, -0.098976, -0.00101638, 0.0233477
609.1729028270000299, -0.00134944, -0.00179541, -0.000576535, -0.0984558, -0.0010065, 0.0231449
609.20621916100003546, -0.00139823, -0.00179409, -0.000592123, -0.0985103, -0.000990363, 0.0231125
609.23953549400005159, -0.00145389, -0.00176454, -0.000594167, -0.0990239, -0.000975061, 0.0232741
609.27300182700003006, -0.00148276, -0.00182534, -0.000628614, -0.0979984, -0.00097326, 0.0229615
609.30631812699994043, -0.00153128, -0.00186134, -0.000701963, -0.0972385, -0.000959256, 0.0227224
609.33963446500001737, -0.00155067, -0.00188109, -0.000714876, -0.0971365, -0.000939838, 0.0226904
609.37295079900002293, -0.00153218, -0.0019211, -0.00071168, -0.0971833, -0.000939367, 0.0227425
609.40626715999997032, -0.00151023, -0.00198392, -0.000702313, -0.0967658, -0.00095756, 0.0226332
609.43958349399997587, -0.00151323, -0.0020069, -0.000737872, -0.0965271, -0.00096874, 0.0225617
609.47289979899994705, -0.00155518, -0.00201414, -0.000762838, -0.0966577, -0.000950252, 0.0225579
609.50621616000000813, -0.00158062, -0.00206917, -0.000769657, -0.0959413, -0.000998549, 0.0223196
609.53953249400001368, -0.00165408, -0.00214026, -0.000778114, -0.0950689, -0.00106041, 0.0220189
609.57284889899995051, -0.00170296, -0.00221174, -0.000791195, -0.09419, -0.00113484, 0.0217548
609.60631512700001622, -0.00171097, -0.00228473, -0.000784999, -0.0931582, -0.00127358, 0.0215596
609.63963146499997947, -0.00174734, -0.00233731, -0.000761357, -0.0909651, -0.00168532, 0.0212412
609.67294779899998503, -0.00175958, -0.00233765, -0.000775396, -0.0891085, -0.00208363, 0.0212138
609.70626412699994034, -0.00177124, -0.0023263, -0.000747327, -0.0885206, -0.00220909, 0.021178
609.73958045999995647, -0.00178204, -0.00230497, -0.00070553, -0.0899612, -0.00196286, 0.0206603
609.7728968269999541, -0.00178714, -0.00227048, -0.000720913, -0.0908644, -0.0018962, 0.0205287
609.80621312699997816, -0.00179532, -0.00224035, -0.000722788, -0.0913837, -0.00193788, 0.0204612
609.83952949399997578, -0.00181819, -0.00223647, -0.000701128, -0.0954504, -0.00157807, 0.0165183
609.87284579399999984, -0.00183495, -0.00223786, -0.00066526, -0.0976934, -0.00129224, 0.0135513
609.90616212700001597, -0.00183466, -0.00230238, -0.000671453, -0.0934891, -0.00127184, 0.0200396
609.9394784600000321, -0.00186294, -0.00227541, -0.000608451, -0.0909565, -0.00141651, 0.0234458
609.97294482699999207, -0.00189795, -0.00226356, -0.000501513, -0.0893612, -0.00168998, 0.0245536
610.00626114099998176, -0.00191298, -0.00226977, -0.000464522, -0.08792, -0.0016616, 0.0266594
610.03957749400001376, -0.00192014, -0.00220422, -0.000550424, -0.0913194, -0.00309141, 0.0208295
610.07289457000001676, -0.00189102, -0.00217892, -0.000628872, -0.0893734, -0.00331405, 0.0261777
610.10621011299997463, -0.00189331, -0.00219356, -0.000652809, -0.0880271, -0.00317939, 0.0301878
610.1395264650000172, -0.00189038, -0.00224768, -0.000656866, -0.0859442, -0.00319951, 0.0358203
610.17284282699995401, -0.00189875, -0.00222729, -0.000682439, -0.0826906, -0.00676552, 0.0450957
610.20616246500003399, -0.00191111, -0.00221295, -0.000647463, -0.0864098, -0.00373912, 0.0341234
610.23947546499994132, -0.00190157, -0.00219646, -0.000617104, -0.098199, 0.0128944, -0.00124985
610.27279182699999183, -0.00190212, -0.00220263, -0.000594446, -0.10188, 0.0190298, -0.0128317
610.30625812699997823, -0.00189943, -0.0023134, -0.000522377, -0.103552, 0.0272043, -0.019474
610.33957449399997586, -0.0018923, -0.00251439, -0.000442797, -0.0842986, 0.00535506, 0.0408049
610.37289079799995761, -0.00188693, -0.00257385, -0.000368835, -0.0768562, -0.00805007, 0.063148
610.40620716000000812, -0.00187373, -0.00266022, -0.000284138, -0.0811061, 4.26048e-05, 0.0463505
610.43952343199998722, -0.00186354, -0.00268834, -0.000259833, -0.0916843, 0.0202761, 0.00977543
610.47283983199997692, -0.00188292, -0.00267684, -0.000199213, -0.104915, 0.0364133, -0.0371466
610.50615616000004593, -0.00185962, -0.00258749, -0.000369003, -0.105304, 0.0377365, -0.0333746
610.53947249400005148, -0.00184198, -0.00253344, -0.00048278, -0.101954, 0.0351771, -0.0178803
610.57278879800003324, -0.00182208, -0.00260766, -0.000529407, -0.0985387, 0.0441935, -0.00408715
610.60610515999997006, -0.00182958, -0.00268625, -0.000439619, -0.0986399, 0.0490302, -0.00677686
610.63942149399997561, -0.00183221, -0.00267544, -0.000360767, -0.0950441, 0.0450311, 0.00535363
610.67288782699995409, -0.0018038, -0.00270424, -0.000373755, -0.088483, 0.050644, 0.031441
610.70620413200003895, -0.00181235, -0.00274765, -0.000299316, -0.0852566, 0.0534434, 0.0427186
610.73952049399997577, -0.00181887, -0.00281164, -0.000223513, -0.0847904, 0.0585014, 0.0433425
610.7728368269999919, -0.00183291, -0.00282877, -0.000120716, -0.0871098, 0.0574589, 0.0326678
610.80615316000000803, -0.00183004, -0.00281065, -0.000111742, -0.0925858, 0.0532281, 0.0110787
610.83946949400001358, -0.00182794, -0.00293873, -6.39518e-05, -0.0958518, 0.0633268, -0.00157464
610.87278579799999534, -0.00183489, -0.00300965, -5.54463e-06, -0.0874319, 0.0748663, 0.0310472
610.90610216499999297, -0.00182491, -0.00303759, -6.98574e-06, -0.0809368, 0.0831507, 0.056612
610.93941845500000909, -0.00180506, -0.00313214, -5.68348e-05, -0.0796699, 0.0910128, 0.0624205
610.97273479399996177, -0.00182204, -0.00325252, 6.79661e-05, -0.0698622, 0.109411, 0.1005
611.00620113200000105, -0.00181208, -0.00333604, 9.74077e-05, -0.0641649, 0.12132, 0.12255
611.03951745999995637, -0.00181625, -0.00333219, 0.000138491, -0.059089, 0.128308, 0.141909
611.07283379800003331, -0.00184882, -0.00335045, 0.000271924, -0.0539663, 0.135058, 0.162262
611.10615013200003887, -0.00186211, -0.00332449, 0.000369543, -0.0522929, 0.135349, 0.169523
611.13946646499994131, -0.0018324, -0.00334663, 0.000250816, -0.0572494, 0.130578, 0.149637
611.17278282699999181, -0.00178327, -0.0034153, 6.25226e-05, -0.0588299, 0.131671, 0.140939
611.20609916000000794, -0.00178277, -0.00354621, 0.000108186, -0.0507919, 0.139583, 0.171921
611.23941546499997912, -0.00175469, -0.00353305, 3.62791e-05, -0.0475308, 0.14419, 0.182048
611.27273179400003755, -0.00176963, -0.00356366, 9.76247e-05, -0.0410201, 0.147513, 0.207546
611.30604813200000081, -0.00178684, -0.00360391, 0.000192946, -0.0369416, 0.147137, 0.225288
611.33951449400001366, -0.00177071, -0.00364247, 0.000197199, -0.0388826, 0.144422, 0.218379
611.37283079400003771, -0.00177397, -0.00363727, 0.000191468, -0.0407661, 0.144077, 0.210918
611.40614716000004591, -0.00176027, -0.00363052, 8.4851e-05, -0.0447576, 0.14471, 0.191766
611.43946343200002502, -0.0017002, -0.00361731, -0.000118293, -0.044238, 0.144479, 0.18619
611.47277979299997241, -0.00169677, -0.00362521, -0.000148092, -0.0442112, 0.14358, 0.184915
611.50609615999997004, -0.00167468, -0.003629, -0.000221393, -0.0424426, 0.140176, 0.187401
611.53941249299998617, -0.00162403, -0.00373214, -0.000444303, -0.0464108, 0.13182, 0.160743
611.57272879300001023, -0.00155473, -0.003742, -0.000758924, -0.0510815, 0.132581, 0.12845
611.60604512700001578, -0.00156603, -0.00359996, -0.000770774, -0.0476378, 0.146446, 0.141716
611.63936149300002398, -0.00158591, -0.00342802, -0.000762281, -0.051953, 0.176411, 0.124839
611.67267779300004804, -0.00160936, -0.00331099, -0.000778206, -0.0532837, 0.193113, 0.117879
611.70614416000000801, -0.00163227, -0.00323811, -0.000837081, -0.0540363, 0.198396, 0.111804
611.73946049300002414, -0.00162438, -0.00316604, -0.000963011, -0.0534587, 0.198311, 0.109274
611.7727768270000297, -0.00161758, -0.00311332, -0.00104376, -0.0512194, 0.190345, 0.116126
611.80609316000004583, -0.00162725, -0.00309726, -0.00106797, -0.0487473, 0.17899, 0.126925
611.83940946500001701, -0.00163449, -0.00305988, -0.00107136, -0.0472396, 0.17574, 0.133786
611.87272582699995382, -0.00164909, -0.00302068, -0.00105755, -0.0452948, 0.172699, 0.143459
611.90604215999996995, -0.00165402, -0.00300988, -0.00106667, -0.0409026, 0.148646, 0.163836
611.93935849299998608, -0.00168537, -0.00310716, -0.000991151, -0.0457965, 0.168304, 0.143016
611.97267482699999164, -0.00169714, -0.00312817, -0.000960755, -0.0461621, 0.168552, 0.141849
612.00599113199996282, -0.00166673, -0.00301197, -0.00107755, -0.042775, 0.160968, 0.156291
612.03945743199994922, -0.00167131, -0.0029428, -0.00109264, -0.0393533, 0.153439, 0.172571
612.0727738269999918, -0.00181666, -0.00293093, -0.000742287, -0.0396593, 0.18273, 0.17653
612.10609016000000793, -0.00188515, -0.0028832, -0.000583884, -0.0370877, 0.188053, 0.19129
612.13940650799997911, -0.0019872, -0.00296534, -0.000389593, -0.0405086, 0.208856, 0.177001
612.17272279799999524, -0.00203597, -0.00293284, -0.00027998, -0.0396841, 0.214169, 0.181938
612.20603913100001137, -0.00202079, -0.00295964, -0.000295127, -0.0378308, 0.204522, 0.190866
612.23935543599998255, -0.00205078, -0.00299228, -0.000212138, -0.0403578, 0.208412, 0.179482
612.27267179800003305, -0.00209459, -0.00295139, -0.000106009, -0.0416254, 0.217644, 0.17436
612.30598813100004918, -0.00206245, -0.00295592, -0.000134216, -0.0393699, 0.212963, 0.184745
612.3393069269999387, -0.00202466, -0.00301207, -0.000252116, -0.038991, 0.200604, 0.185668
612.37262082699999155, -0.00205638, -0.0030104, -0.000224038, -0.0373843, 0.204576, 0.193233
612.40608713100004934, -0.00206451, -0.00294147, -0.000235663, -0.0353122, 0.213844, 0.202246
612.43940350299999409, -0.00210643, -0.00293832, -0.000155781, -0.0350585, 0.215619, 0.203866
612.47271979799995734, -0.00210421, -0.00294385, -0.000204144, -0.0348195, 0.213302, 0.204566
612.50603612700001577, -0.00208583, -0.00299083, -0.00029647, -0.0330487, 0.217609, 0.211096
612.53935249300002397, -0.00208587, -0.00299307, -0.000262225, -0.0323539, 0.223184, 0.214061
612.57266882700002952, -0.00208906, -0.00303287, -0.000224429, -0.0313505, 0.226359, 0.218115
612.60598516000004565, -0.00205414, -0.00306621, -0.000322869, -0.0287226, 0.239381, 0.227356
612.63930146500001683, -0.00204099, -0.00311343, -0.000291581, -0.0260046, 0.257496, 0.237721
612.67261782699995365, -0.00200104, -0.00311738, -0.000363133, -0.0235778, 0.275193, 0.24627
612.70593415999996978, -0.00196931, -0.00306099, -0.000483541, -0.0233419, 0.278274, 0.246443
612.73940045999995618, -0.00198798, -0.00298287, -0.00046339, -0.0222166, 0.29303, 0.250932
612.77271682699995381, -0.00197713, -0.00305283, -0.000454276, -0.0200895, 0.307344, 0.258465
612.80603319299996201, -0.00194719, -0.00307984, -0.000507997, -0.0173561, 0.328301, 0.267541
612.83934949299998607, -0.00191544, -0.00307844, -0.000561626, -0.0143189, 0.353731, 0.277497
612.87266579799995725, -0.00193724, -0.00299537, -0.000477103, -0.013488, 0.369557, 0.280921
612.90598216000000775, -0.00192258, -0.00292381, -0.000571525, -0.0136641, 0.370413, 0.280392
612.93929849300002388, -0.00197802, -0.00288245, -0.000493436, -0.0137371, 0.374181, 0.280616
612.97261482700002944, -0.00199403, -0.00292026, -0.000453493, -0.0126769, 0.381106, 0.283808
613.00593116000004557, -0.00201475, -0.00292938, -0.000438364, -0.0116938, 0.386111, 0.286792
613.03924749299994801, -0.00203424, -0.00292678, -0.000414017, -0.0108861, 0.390195, 0.289046
613.07256379299997207, -0.00205073, -0.00295557, -0.000416827, -0.0101934, 0.392103, 0.291101
613.10603016000004573, -0.00207612, -0.00299108, -0.000454076, -0.00956179, 0.392408, 0.293245
613.13934646500001691, -0.00211852, -0.00304268, -0.000469588, -0.00876271, 0.391766, 0.295695
613.17266282699995372, -0.00212791, -0.00305473, -0.000486232, -0.00805403, 0.392635, 0.297896
613.20597912699997778, -0.00213186, -0.0030477, -0.00053546, -0.0072928, 0.392947, 0.300844
613.23929545999999391, -0.00214668, -0.00303461, -0.000540057, -0.00632407, 0.393688, 0.303931
613.27261179799995716, -0.00215196, -0.00297579, -0.000514983, -0.00570176, 0.39353, 0.30572
613.30592816000000767, -0.00213501, -0.00292893, -0.000573462, -0.00552804, 0.391495, 0.307512
613.33924449300002379, -0.00215069, -0.00288306, -0.000560021, -0.00553871, 0.390174, 0.307224
613.37256082700002935, -0.00212547, -0.00285818, -0.000619126, -0.00550159, 0.389218, 0.30881
613.40587712699993972, -0.00211849, -0.00288967, -0.00062096, -0.00571329, 0.390408, 0.308004
613.43934343099999751, -0.0021076, -0.00292202, -0.000611187, -0.00641694, 0.391386, 0.30486
613.47265979300004801, -0.00211093, -0.00288186, -0.000592697, -0.00767938, 0.387919, 0.299142
613.50597612699993988, -0.00210911, -0.00290227, -0.000555661, -0.00878753, 0.387866, 0.293288
613.53929249299994808, -0.00213061, -0.00288347, -0.000510174, -0.0095157, 0.385723, 0.288734
613.57260879800003295, -0.00217457, -0.00287719, -0.000391603, -0.0106093, 0.383439, 0.279942
613.60592513100004908, -0.00219771, -0.00290939, -0.000304007, -0.0115258, 0.384725, 0.272812
613.63924143600002026, -0.00223241, -0.00293836, -0.000176245, -0.0123326, 0.385507, 0.264542
613.67255779300000995, -0.00227564, -0.00296066, -2.56987e-05, -0.0133052, 0.385623, 0.2545
613.7058741309999732, -0.00231108, -0.00303031, 6.67913e-05, -0.0134081, 0.391625, 0.250219
613.73919046499997876, -0.00232604, -0.00306935, 0.000115794, -0.0132179, 0.395889, 0.248961
613.77250682600003984, -0.00230138, -0.0031086, 0.000111392, -0.0126372, 0.401632, 0.251696
613.80597316000000774, -0.00228894, -0.0031176, 0.000130595, -0.0127256, 0.403025, 0.250514
613.83928949300002387, -0.00227334, -0.00311926, 0.000134878, -0.0125026, 0.40415, 0.25126
613.87260579300004792, -0.00224286, -0.00313919, 0.000107064, -0.01204, 0.408238, 0.254234
613.90592216000004555, -0.00224065, -0.00316327, 8.56146e-05, -0.0114653, 0.411726, 0.257107
613.93923849299994799, -0.00224894, -0.0031197, 8.77646e-05, -0.0113014, 0.406666, 0.257275
613.97255482599996412, -0.00225699, -0.00310804, 9.5087e-05, -0.0110372, 0.406423, 0.257793
614.00587115999996968, -0.00227747, -0.00309006, 0.000122878, -0.0107037, 0.405345, 0.257746
614.03918749800004662, -0.00225557, -0.00309731, 0.000126811, -0.0103378, 0.407648, 0.258704
614.07250379799995699, -0.00221203, -0.00308996, 0.000113334, -0.0097097, 0.409281, 0.260966
614.10582016000000749, -0.0022015, -0.00312544, 0.000111336, -0.00890065, 0.415321, 0.263542
614.13928649299998597, -0.00219346, -0.00316464, 0.000131286, -0.00816743, 0.421593, 0.265225
614.1726028260000021, -0.00215889, -0.00318451, 8.18831e-05, -0.00755423, 0.42586, 0.267855
614.20591913099997328, -0.00214882, -0.00318218, 6.47483e-05, -0.00723255, 0.426672, 0.268928
614.23923546000003171, -0.0021285, -0.003148, 2.74019e-05, -0.00687539, 0.425103, 0.270086
614.27255179799999496, -0.00210937, -0.00313381, -7.94302e-07, -0.00670116, 0.42463, 0.27073
614.30586816000004546, -0.0020969, -0.00314524, -2.67666e-05, -0.00564466, 0.429696, 0.273078
614.33918446500001664, -0.00207654, -0.003128, -9.07002e-05, -0.00452678, 0.432656, 0.275698
614.37250079800003277, -0.00205183, -0.00305906, -0.000155798, -0.00411403, 0.428782, 0.276553
614.40581715999996959, -0.00201473, -0.00299463, -0.000254917, -0.00354839, 0.426163, 0.278041
614.43913346399995135, -0.00198133, -0.00298674, -0.000336803, -0.00293726, 0.427901, 0.279829
614.47259979800003293, -0.00194151, -0.00294301, -0.000421866, -0.00249498, 0.426404, 0.281003
614.50591615999996975, -0.00191849, -0.00291214, -0.000510281, -0.00230828, 0.424832, 0.281832
614.53923246399995151, -0.00193099, -0.00294307, -0.000559443, -0.0020574, 0.427212, 0.282906
614.57254879300000994, -0.00191634, -0.00294452, -0.000615808, -0.00150172, 0.428297, 0.284448
614.60586513099997319, -0.00189878, -0.00291158, -0.000663748, -0.00114247, 0.426604, 0.285445
614.63918149300002369, -0.00188432, -0.00284736, -0.000703848, -0.00104368, 0.422271, 0.285722
614.67249782600003982, -0.00189217, -0.00276788, -0.000714439, -0.00138476, 0.416375, 0.284737
614.70581416000004538, -0.00188676, -0.00270933, -0.000703977, -0.00147738, 0.411855, 0.284205
614.73913046400002713, -0.00187285, -0.00268303, -0.000723016, -0.00174061, 0.410001, 0.283746
614.7724468500000512, -0.00185207, -0.00268462, -0.000755824, -0.00183014, 0.410348, 0.284218
614.80576313100004882, -0.00183979, -0.00266699, -0.000786829, -0.00211065, 0.409071, 0.284077
614.83922946400002729, -0.00184048, -0.00269736, -0.000786825, -0.00251603, 0.412161, 0.282917
614.87254580700005135, -0.00182596, -0.00272529, -0.000764368, -0.00324639, 0.41541, 0.279883
614.90586213100004898, -0.00182567, -0.00270609, -0.000714482, -0.00386926, 0.414117, 0.276293
614.93917846399995142, -0.00184039, -0.00270041, -0.000664093, -0.00458363, 0.413883, 0.272121
614.97249476399997548, -0.00187416, -0.00268985, -0.000595802, -0.00540308, 0.412542, 0.266624
615.0058111309999731, -0.00189263, -0.00270474, -0.0005507, -0.00583262, 0.414018, 0.263254
615.03912746900005004, -0.00189642, -0.00270063, -0.000529428, -0.0060063, 0.413336, 0.261615
615.07244379799999479, -0.00190829, -0.00270105, -0.000485452, -0.00616793, 0.413018, 0.259037
615.10576016000004529, -0.00193162, -0.00272796, -0.000425304, -0.00631748, 0.415731, 0.255846
615.13907649299994773, -0.00194328, -0.00276188, -0.000382898, -0.00632604, 0.419834, 0.253981
615.17254276899996057, -0.00192111, -0.00280914, -0.000402481, -0.00565137, 0.427628, 0.257412
615.20585912599995027, -0.00188819, -0.0028419, -0.000425588, -0.00505185, 0.433732, 0.260653
615.2391754640000272, -0.00187356, -0.00286942, -0.000432396, -0.00473379, 0.437831, 0.262074
615.27249182599996402, -0.00186841, -0.00292622, -0.000435627, -0.00423266, 0.44631, 0.263941
615.30580813100004889, -0.00186805, -0.00295957, -0.000436097, -0.00367237, 0.452477, 0.265717
615.3391244929999857, -0.00185284, -0.00298373, -0.000436928, -0.00312027, 0.457686, 0.267252
615.37244082600000183, -0.00183824, -0.00296799, -0.000428549, -0.00293278, 0.457012, 0.267277
615.40575710200005233, -0.00184331, -0.00295489, -0.00040999, -0.00257361, 0.458437, 0.267471
615.43907346000003145, -0.00185295, -0.00297494, -0.000394822, -0.00211173, 0.463445, 0.268002
615.47238982600003965, -0.00185526, -0.00300309, -0.000381413, -0.00157103, 0.469341, 0.268713
615.50570613100001083, -0.00185274, -0.00302363, -0.000348326, -0.00119438, 0.473548, 0.268646
615.53917249300002368, -0.00184701, -0.00302117, -0.000355354, -0.000512334, 0.476818, 0.269419
615.57248882600003981, -0.00183797, -0.00301035, -0.000389592, 2.29141e-05, 0.477986, 0.270232
615.60580516400000306, -0.00182184, -0.00299422, -0.000437148, 0.000614665, 0.478913, 0.270968
615.63912146400002712, -0.00180421, -0.00298139, -0.000470762, 0.00116677, 0.479719, 0.271332
615.67243779299997186, -0.00180049, -0.00295255, -0.000505024, 0.00146551, 0.47819, 0.271282
615.70575412599998799, -0.00179645, -0.00294052, -0.000544238, 0.0018334, 0.478227, 0.27128
615.73907046399995124, -0.00179397, -0.00294783, -0.000603602, 0.00208828, 0.479283, 0.271319
615.77238684999997531, -0.00177826, -0.00293948, -0.000650127, 0.00218402, 0.478886, 0.271088
615.8057031600000073, -0.00177372, -0.00292865, -0.000693701, 0.00215165, 0.478444, 0.270763
615.83901949300002343, -0.00177094, -0.00290233, -0.000722899, 0.00227162, 0.476712, 0.270471
615.87248579300000983, -0.00176046, -0.00287489, -0.000745319, 0.00225521, 0.475365, 0.270142
615.90580212600002596, -0.001741, -0.00284881, -0.000761207, 0.00249107, 0.47219, 0.270113
615.93911849300002359, -0.00173361, -0.00278462, -0.000777167, 0.00248592, 0.468469, 0.269753
615.97243479300004765, -0.00171807, -0.00275035, -0.000813572, 0.00250095, 0.466146, 0.269662
616.00575115899994216, -0.00170716, -0.00275973, -0.00084295, 0.00239408, 0.467642, 0.269703
616.03906159199993908, -0.00169092, -0.00278085, -0.000863324, 0.00225105, 0.470208, 0.269679
616.07237179599997035, -0.00167015, -0.00279055, -0.000875437, 0.00205196, 0.472406, 0.269399
616.10568193699998574, -0.00166717, -0.00275954, -0.000871084, 0.00158509, 0.474913, 0.268224
616.13899217300001965, -0.00166728, -0.00273061, -0.000865327, 0.00110325, 0.477523, 0.266874
616.17230240499998217, -0.00167957, -0.00272116, -0.00084792, 0.00076229, 0.479757, 0.265534
616.20576258100004452, -0.00169458, -0.00273202, -0.000826529, 0.000376961, 0.483662, 0.263811
616.23907274999999117, -0.00170143, -0.00272907, -0.000809823, -0.00012389, 0.487035, 0.261677
616.27238298700001451, -0.00171974, -0.00274809, -0.0007563, -0.000588761, 0.49154, 0.258372
616.3056931280000299, -0.00173317, -0.0027653, -0.000709316, -0.000768927, 0.493795, 0.255962
616.33900336499993955, -0.00175564, -0.00277631, -0.000660914, -0.00106207, 0.495805, 0.252961
616.37231359600002634, -0.00177829, -0.00277683, -0.000623183, -0.00122032, 0.495856, 0.250792
616.40562377100002323, -0.00180312, -0.00279181, -0.000569656, -0.00129885, 0.49713, 0.248173
616.43893397399995138, -0.00180661, -0.00280354, -0.000539101, -0.000914973, 0.496639, 0.248097
616.47224420600002759, -0.00180151, -0.00280347, -0.000509111, -0.000744341, 0.495639, 0.247286
616.50555437499997424, -0.00181446, -0.00279457, -0.000491527, -0.00054339, 0.493645, 0.247123
616.53886461199999758, -0.00182628, -0.00279276, -0.000471761, -0.000492475, 0.492964, 0.246381
616.57232478699995681, -0.00182293, -0.00280699, -0.000460054, -0.000352142, 0.494597, 0.246307
616.60563495700000658, -0.00182078, -0.00281077, -0.000454912, -5.50776e-05, 0.495217, 0.246857
616.63894516000004842, -0.00181697, -0.0028093, -0.000451292, 0.000337802, 0.495459, 0.247553
616.67225539699995807, -0.00180321, -0.0028071, -0.000446856, 0.000758217, 0.496268, 0.248202
616.7055655999999999, -0.00178111, -0.00280074, -0.000432262, 0.00115881, 0.496779, 0.248348
616.73887577400000737, -0.00177362, -0.00281554, -0.000426524, 0.00142495, 0.49833, 0.248544
616.77218600599996989, -0.00177072, -0.00282169, -0.00042445, 0.00161847, 0.499158, 0.248591
616.80549620900001173, -0.00176708, -0.00282296, -0.000433522, 0.00178544, 0.499494, 0.248575
616.83880641199993988, -0.00176077, -0.00280704, -0.000473003, 0.00203457, 0.498703, 0.248215
616.87211658199998965, -0.00176128, -0.00278617, -0.00052354, 0.0021361, 0.497423, 0.247499
616.90557679100004407, -0.00178902, -0.0028122, -0.000548589, 0.00238709, 0.498469, 0.247233
616.93888696600004096, -0.00178468, -0.00280571, -0.00056839, 0.00252737, 0.498184, 0.24679
616.97219719700001406, -0.00178251, -0.00279176, -0.000608541, 0.00273823, 0.497385, 0.245808
617.00550738599997658, -0.00177428, -0.00277637, -0.000661554, 0.00316423, 0.495763, 0.244389
617.03882332199998473, -0.00175625, -0.00275764, -0.00073106, 0.00324704, 0.494507, 0.242568
617.07213960900003258, -0.00173898, -0.00272859, -0.000795948, 0.00338386, 0.492905, 0.240884
617.10545591300001433, -0.00171452, -0.00270913, -0.00085441, 0.00336197, 0.491959, 0.239435
617.13877225199996701, -0.0016982, -0.00269394, -0.000883007, 0.00310321, 0.492905, 0.238677
617.17208864199994878, -0.00167315, -0.00269464, -0.000927101, 0.0028645, 0.493559, 0.237595
617.20540542300000197, -0.00166737, -0.00267616, -0.000954739, 0.00281121, 0.493508, 0.237106
617.23872130899997046, -0.00166158, -0.00265411, -0.000954839, 0.00241235, 0.496019, 0.236548
617.27218760899995686, -0.00166151, -0.00264321, -0.000951833, 0.00196789, 0.498885, 0.235834
617.30550397499996507, -0.00166696, -0.00265413, -0.000939716, 0.00152944, 0.501907, 0.234903
617.33882030899997062, -0.00168511, -0.00266536, -0.000898637, 0.00117723, 0.50451, 0.233887
617.37213664199998675, -0.00169242, -0.00267156, -0.000865877, 0.000931447, 0.506304, 0.232857
617.40545291299997643, -0.00170326, -0.00266772, -0.00083354, 0.000761968, 0.507089, 0.231798
617.43876927999997406, -0.00172195, -0.00267148, -0.000779184, 0.00064338, 0.507725, 0.230173
617.47208564200002456, -0.00174114, -0.00269146, -0.000732956, 0.000468138, 0.509296, 0.228292
617.50540194699999574, -0.00175761, -0.00271482, -0.000696112, 0.000313459, 0.51095, 0.226606
617.53871830900004625, -0.00176632, -0.0027202, -0.000669588, 0.000527992, 0.51048, 0.226343
617.57203464199994869, -0.00176737, -0.00271567, -0.000653452, 0.00093515, 0.5093, 0.226938
617.60550097500004085, -0.00177494, -0.00271038, -0.000632912, 0.000911803, 0.508216, 0.226039
617.63881727499995122, -0.00178581, -0.00271966, -0.000621223, 0.000944866, 0.508527, 0.225647
617.67213361300002816, -0.00179498, -0.00273608, -0.000606797, 0.00119903, 0.510133, 0.225611
617.70544997499996498, -0.00179361, -0.00273428, -0.000597948, 0.0013722, 0.510413, 0.225594
617.73876630899997053, -0.00179225, -0.00273965, -0.000594559, 0.00160548, 0.511781, 0.225861
617.77208261299995229, -0.0017952, -0.00275773, -0.000588321, 0.00174124, 0.513346, 0.22587
617.80539897500000279, -0.00179664, -0.00277516, -0.000575471, 0.00201457, 0.51604, 0.225816
617.83871527999997397, -0.00181318, -0.00278088, -0.000564132, 0.00218716, 0.51801, 0.22572
617.8720316090000324, -0.00182876, -0.0027932, -0.00056176, 0.00241794, 0.520585, 0.225758
617.90534794699999566, -0.00182871, -0.00279521, -0.000568037, 0.00276484, 0.523412, 0.225622
617.93866425099997741, -0.00182196, -0.00279071, -0.000586044, 0.0030023, 0.525048, 0.225426
617.97213060900003256, -0.00180492, -0.00276856, -0.000627221, 0.00336922, 0.527107, 0.224669
618.00544694200004869, -0.00179577, -0.0027461, -0.0006615, 0.00353731, 0.527788, 0.223924
618.03876327499995114, -0.00179971, -0.00273779, -0.000691913, 0.00369241, 0.528663, 0.222978
618.07207960899995669, -0.00179332, -0.00273352, -0.000733365, 0.00382163, 0.529576, 0.22156
618.10539597499996489, -0.00177823, -0.0027244, -0.000778888, 0.00387891, 0.530284, 0.219889
618.138712246999944, -0.0017705, -0.00271647, -0.000810641, 0.00395518, 0.530741, 0.218541
618.1720286129999522, -0.00175754, -0.0026988, -0.000859258, 0.004046, 0.531494, 0.216487
618.20534497500000271, -0.00175147, -0.00268009, -0.000904486, 0.00407772, 0.532111, 0.214574
618.23866130800001883, -0.00173447, -0.0026476, -0.000945853, 0.00429573, 0.533468, 0.212742
618.27197764200002439, -0.00171724, -0.00263374, -0.000966826, 0.00412473, 0.5337, 0.212029
618.30544397999994999, -0.00170423, -0.00264627, -0.000988499, 0.00403132, 0.532953, 0.211182
618.33876030800001899, -0.00170012, -0.00263908, -0.000997978, 0.00413761, 0.533174, 0.21082
618.37207739400002993, -0.00170187, -0.0026332, -0.000992993, 0.00417964, 0.533444, 0.210938
618.40539297500004068, -0.00171721, -0.00263921, -0.000978759, 0.00380821, 0.53355, 0.210924
618.43870928000001186, -0.00173304, -0.0026528, -0.000973653, 0.00330525, 0.533405, 0.210382
618.47202560799996718, -0.00174425, -0.00264969, -0.000961735, 0.0029285, 0.533846, 0.209974
618.50534194199997273, -0.00174779, -0.00265072, -0.000945782, 0.0025447, 0.534071, 0.20932
618.53865828000004967, -0.00175088, -0.00265398, -0.000924275, 0.00210595, 0.534135, 0.208376
618.57197464199998649, -0.00175403, -0.00265944, -0.000901633, 0.00189559, 0.534038, 0.207744
618.60529094699995767, -0.00177298, -0.00265217, -0.000851999, 0.00160304, 0.534122, 0.206658
618.63860730800001875, -0.00179027, -0.00264933, -0.000791263, 0.00148085, 0.534325, 0.205831
618.67207364199998665, -0.00180531, -0.00265359, -0.000737066, 0.00153492, 0.534714, 0.205426
618.70538997500000278, -0.00181432, -0.00266068, -0.000687098, 0.00135909, 0.534524, 0.204441
618.73870630800001891, -0.00180711, -0.00266788, -0.000667891, 0.00118346, 0.534068, 0.203826
618.77202264200002446, -0.00180053, -0.0026805, -0.000654939, 0.00123036, 0.5342, 0.203781
618.80533897500004059, -0.0018009, -0.00267048, -0.000640074, 0.00149698, 0.535484, 0.204211
618.83865527499995096, -0.0017965, -0.00267082, -0.000629712, 0.00190739, 0.537583, 0.204838
618.8719716130000279, -0.0017845, -0.00266373, -0.000629745, 0.00218566, 0.539316, 0.205192
618.90528797499996472, -0.00177215, -0.00266042, -0.000636727, 0.00250766, 0.541336, 0.205431
618.93860428000004958, -0.00177209, -0.00266599, -0.000638405, 0.00267292, 0.542363, 0.205444
618.9719206419999864, -0.00177027, -0.00266723, -0.000648627, 0.002866, 0.543693, 0.205204
619.00538691300005212, -0.00177714, -0.00266583, -0.000672122, 0.00304004, 0.544847, 0.204448
619.03870327499998893, -0.00177811, -0.00264092, -0.000683827, 0.00325391, 0.547938, 0.204013
619.07201964199998656, -0.00177994, -0.00262748, -0.000702442, 0.00343482, 0.549997, 0.203161
619.10533597500000269, -0.00178287, -0.00260803, -0.000725622, 0.00352563, 0.551861, 0.202062
619.1386528460000136, -0.00178576, -0.00258549, -0.000743569, 0.00350062, 0.553607, 0.201205
619.17196864200002437, -0.00178021, -0.00256767, -0.000763806, 0.00356975, 0.555343, 0.199887
619.2052849750000405, -0.00177204, -0.00255067, -0.000785105, 0.00365663, 0.557026, 0.19838
619.23860128000001168, -0.00176451, -0.00254919, -0.000811454, 0.00359048, 0.556999, 0.196815
619.27191761300002781, -0.00176098, -0.00254935, -0.000828957, 0.00348129, 0.557102, 0.195972
619.30523397499996463, -0.00175526, -0.00254641, -0.000855387, 0.00364735, 0.555923, 0.19367
619.33855025599996225, -0.00175849, -0.00253589, -0.000841375, 0.0036374, 0.557661, 0.194728
619.37201660799996716, -0.00174995, -0.00253796, -0.000879205, 0.0036153, 0.556377, 0.192322
619.40533297499996479, -0.00175368, -0.00253283, -0.00089594, 0.00361318, 0.556698, 0.191508
619.43864927499998885, -0.00176118, -0.00251987, -0.000908606, 0.00366224, 0.557895, 0.19095
619.4719656129999521, -0.00176236, -0.00250043, -0.000907382, 0.00381404, 0.55961, 0.190931
619.5052819750000026, -0.00176708, -0.00248105, -0.000893114, 0.00384636, 0.561861, 0.191649
619.53859907499997917, -0.00176822, -0.00250369, -0.000868338, 0.00371825, 0.559992, 0.192261
619.57191461299998991, -0.0017715, -0.00251442, -0.000863437, 0.00350037, 0.559198, 0.19255
619.60523097500004042, -0.00176784, -0.00251132, -0.000896468, 0.00317852, 0.558864, 0.192644
619.63854730799994286, -0.00177066, -0.00250695, -0.000906865, 0.00310213, 0.559007, 0.192714
619.67186360799996692, -0.0017682, -0.00249382, -0.000937406, 0.00268807, 0.558654, 0.19314
619.70532997500004058, -0.00177387, -0.00248476, -0.000921586, 0.00281595, 0.559618, 0.193086
619.73864624600003026, -0.00177311, -0.00249936, -0.000896847, 0.00250546, 0.557801, 0.192572
619.77196264199994857, -0.001776, -0.00249215, -0.00088978, 0.00238238, 0.557414, 0.192459
619.8052789749999647, -0.00178626, -0.0024954, -0.000863876, 0.00229151, 0.55706, 0.191505
619.83859528000004957, -0.00178505, -0.00250874, -0.000816654, 0.00223009, 0.55692, 0.189336
619.87191164599994408, -0.00178586, -0.00251097, -0.000808406, 0.00254292, 0.559004, 0.188704
619.90522797500000252, -0.00178753, -0.00252203, -0.000784909, 0.00266416, 0.559954, 0.187246
619.9385442799999737, -0.00178611, -0.00252899, -0.000759778, 0.00249042, 0.55927, 0.186206
619.9718606080000427, -0.00180613, -0.00251322, -0.000721914, 0.00236859, 0.55847, 0.184549
620.00517697500004033, -0.00179937, -0.00252148, -0.000737145, 0.00260616, 0.559431, 0.184634
620.0384932749999507, -0.00179986, -0.00252044, -0.000751545, 0.00239363, 0.559194, 0.18605
620.07195964200002436, -0.00180599, -0.00251824, -0.000772822, 0.00238507, 0.5593, 0.186815
620.10527594600000612, -0.00180622, -0.00251323, -0.000785519, 0.00238857, 0.559383, 0.187082
620.1385922509999773, -0.00180668, -0.00250781, -0.000795034, 0.00221147, 0.560053, 0.188194
620.17190860799996699, -0.0018169, -0.0024861, -0.00074037, 0.00184221, 0.5618, 0.190104
620.20522493700002542, -0.0018194, -0.00245117, -0.000750952, 0.00190505, 0.562379, 0.189743
620.23854130799998075, -0.00183021, -0.00244562, -0.000783878, 0.00192748, 0.562441, 0.18938
620.27185761299995193, -0.00183738, -0.00242041, -0.000771227, 0.00171172, 0.565923, 0.191757
620.30517397500000243, -0.00184768, -0.0024304, -0.000766517, 0.00189507, 0.562656, 0.189638
620.33849027999997361, -0.00184975, -0.00238483, -0.000780952, 0.00171454, 0.568436, 0.19216
620.37180664200002411, -0.00185057, -0.00236026, -0.000789917, 0.00158404, 0.573145, 0.194382
620.40527297500000259, -0.00184543, -0.00237633, -0.000768108, 0.00154134, 0.576537, 0.196965
620.43858930800001872, -0.00184358, -0.00239932, -0.000752534, 0.00164122, 0.569183, 0.193737
620.471905860999982, -0.0018385, -0.00236803, -0.000747364, 0.00153813, 0.581542, 0.199915
620.50522194099994522, -0.00183376, -0.00235678, -0.000733752, 0.00148582, 0.59012, 0.204581
620.53853828000001158, -0.00183504, -0.00240287, -0.000692778, 0.00159812, 0.578751, 0.199844
620.57185464099995897, -0.00183751, -0.00236978, -0.00069402, 0.00154986, 0.589313, 0.20508
620.60517094600004384, -0.00183853, -0.00237656, -0.000697962, 0.00155297, 0.587031, 0.20386
620.6384872800000494, -0.00185151, -0.00235859, -0.000735587, 0.00146782, 0.595088, 0.207608
620.67180360800000471, -0.00185807, -0.00234349, -0.000754398, 0.00141937, 0.600955, 0.210489
620.70511997500000234, -0.00187003, -0.00229002, -0.000785669, 0.00132469, 0.617105, 0.218659
620.73858628000004956, -0.0018812, -0.00223149, -0.000802757, 0.00126311, 0.632164, 0.226443
620.77190264099999695, -0.00189754, -0.00218211, -0.000822938, 0.00120596, 0.644447, 0.232779
620.80521970300003431, -0.00190434, -0.00213665, -0.000813911, 0.00121305, 0.652974, 0.237428
620.83853530800001863, -0.00189909, -0.00211233, -0.00079094, 0.00124279, 0.658165, 0.24088
620.87185164100003476, -0.00189286, -0.00208856, -0.000764858, 0.00127887, 0.663425, 0.244604
620.90516797500004031, -0.00188569, -0.00206761, -0.000740789, 0.00130994, 0.668875, 0.248719
620.93848428000001149, -0.00188148, -0.00205519, -0.00072409, 0.00133366, 0.671973, 0.251198
620.97180064099995889, -0.00187993, -0.0020446, -0.000709871, 0.00135293, 0.674852, 0.253615
621.00511694099998294, -0.00187816, -0.00203567, -0.00069746, 0.00137089, 0.677249, 0.255715
621.03843330799998057, -0.00188046, -0.00202906, -0.000691165, 0.00138002, 0.679023, 0.25728
621.0717496409999967, -0.00188188, -0.00202263, -0.000687041, 0.00138751, 0.680598, 0.258651
621.1052159749999646, -0.00188655, -0.00201873, -0.000685293, 0.00138993, 0.682113, 0.260128
621.13853227899994636, -0.00188892, -0.00201396, -0.000684061, 0.00139355, 0.683619, 0.26155
621.17184864099999686, -0.00189264, -0.00201139, -0.000685124, 0.00139396, 0.684339, 0.262232
621.20516491800003678, -0.00189453, -0.00200762, -0.000687777, 0.00139316, 0.685591, 0.26342
621.23848127899998417, -0.00189883, -0.00200508, -0.000689917, 0.00139189, 0.687175, 0.265118
621.2717976080000426, -0.00190395, -0.0020019, -0.00069256, 0.00139126, 0.688001, 0.265893
621.30511397500004023, -0.00190641, -0.00200037, -0.000694422, 0.00139042, 0.688262, 0.266113
621.338430451000022, -0.00191245, -0.00199912, -0.000696342, 0.00138888, 0.688467, 0.266302
621.37174660799996673, -0.00191723, -0.00199774, -0.000698668, 0.00138786, 0.688673, 0.266448
621.40506297499996435, -0.00192407, -0.00199805, -0.000703247, 0.0013825, 0.688907, 0.266779
621.43852931300000364, -0.00192585, -0.00199795, -0.000705449, 0.00138009, 0.689213, 0.267138
621.47184564099995896, -0.00192882, -0.00199837, -0.000707267, 0.00137809, 0.689754, 0.267804
621.50516197499996451, -0.0019393, -0.00199658, -0.000710619, 0.00137591, 0.690797, 0.26897
621.53847827899994627, -0.00194889, -0.00199549, -0.000712621, 0.0013741, 0.691403, 0.269678
621.5717946080000047, -0.00194929, -0.00199206, -0.000712959, 0.00137661, 0.691907, 0.270014
621.60511097500000233, -0.00195793, -0.00199046, -0.000715371, 0.00137557, 0.692236, 0.270344
621.63842730800001846, -0.00197962, -0.00198249, -0.000725635, 0.00137158, 0.69282, 0.270587
621.67174395099993944, -0.0020005, -0.00197561, -0.000733411, 0.00136875, 0.692932, 0.270401
621.70505993200004013, -0.0020152, -0.00197087, -0.000733706, 0.00137131, 0.693399, 0.270733
621.7383762790000219, -0.00202322, -0.00196798, -0.000732777, 0.00137391, 0.693789, 0.271089
621.77169299399997726, -0.002032, -0.00196537, -0.000730414, 0.00137731, 0.694338, 0.271687
621.8051589750000403, -0.00204109, -0.00196146, -0.000729251, 0.00138033, 0.69493, 0.272238
621.83847527499995067, -0.00205365, -0.00195962, -0.000727256, 0.00138266, 0.695362, 0.272753
621.87179157900004611, -0.0020656, -0.00195873, -0.000726565, 0.00138366, 0.695614, 0.273082
621.90510794600004374, -0.00207942, -0.00195794, -0.000726445, 0.00138432, 0.695693, 0.273236
621.93842427899994618, -0.00209658, -0.00195636, -0.000726644, 0.00138562, 0.696101, 0.273743
621.97174062700003105, -0.0021198, -0.00195349, -0.000726465, 0.00138777, 0.696606, 0.274311
622.00505694100002074, -0.00213297, -0.00195289, -0.000731363, 0.00138414, 0.695929, 0.273576
622.0383732750000263, -0.00214668, -0.00194927, -0.000734077, 0.00138419, 0.696262, 0.273842
622.07168960800004243, -0.00215957, -0.00194309, -0.000749895, 0.00137945, 0.696603, 0.274159
622.10500597500004005, -0.00215565, -0.00193578, -0.000750902, 0.00138142, 0.697147, 0.274529
622.13847230800001853, -0.00215293, -0.00192746, -0.000747312, 0.0013875, 0.699216, 0.276612
622.17178861299998971, -0.00215338, -0.00192332, -0.000745987, 0.00139089, 0.699872, 0.277237
622.20510497500004021, -0.00216695, -0.00191881, -0.000754346, 0.00138969, 0.699334, 0.276603
622.23842130799994266, -0.00218239, -0.00191293, -0.000760253, 0.00138978, 0.699785, 0.277047
622.27173764099995878, -0.00220199, -0.0018993, -0.000774587, 0.00138768, 0.700091, 0.27722
622.30505394600004365, -0.0022074, -0.00188987, -0.000769757, 0.00138869, 0.701698, 0.278817
622.33837025100001483, -0.00220199, -0.00189228, -0.000756908, 0.00138968, 0.702693, 0.279743
622.3716866409999966, -0.00219843, -0.00189031, -0.000750155, 0.00138911, 0.703913, 0.280982
622.40500294599996778, -0.00219524, -0.00188995, -0.000741009, 0.00138721, 0.703385, 0.280211
622.43831927899998391, -0.00219476, -0.00189055, -0.000738734, 0.00138608, 0.702447, 0.279132
622.47163561299998946, -0.00221084, -0.00188531, -0.000757895, 0.00138919, 0.702786, 0.279919
622.50510194100002082, -0.00222736, -0.00188432, -0.000774839, 0.00138642, 0.700151, 0.277377
622.53841825100005281, -0.00222602, -0.00188372, -0.00077778, 0.00138263, 0.698916, 0.276092
622.57173458399995525, -0.00222954, -0.00188914, -0.000783175, 0.00138576, 0.699249, 0.276506
622.60505094600000575, -0.00222699, -0.00188473, -0.000782579, 0.00139449, 0.702267, 0.279567
622.63836730799994257, -0.0022317, -0.00187954, -0.000787782, 0.00140648, 0.706018, 0.283314
622.67168360799996663, -0.00220629, -0.00188989, -0.000759295, 0.00139462, 0.702591, 0.279646
622.70499997399997483, -0.00217804, -0.00188979, -0.000737821, 0.00138289, 0.700769, 0.277644
622.73831627399999888, -0.00215945, -0.00189591, -0.000719971, 0.00138015, 0.70091, 0.277424
622.77163264099999651, -0.00214786, -0.00189756, -0.000708474, 0.00138018, 0.703994, 0.279854
622.80494894100002057, -0.00213927, -0.001909, -0.000695747, 0.00138048, 0.705774, 0.28095
622.83841527399999904, -0.00213356, -0.00191088, -0.000691383, 0.00138105, 0.705195, 0.280364
622.87173164099999667, -0.00212281, -0.00191735, -0.000683182, 0.00138609, 0.704084, 0.279254
622.90504794100002073, -0.00211113, -0.00192557, -0.000675292, 0.00140239, 0.701986, 0.277394
622.93836427899998398, -0.00209137, -0.00191998, -0.000662089, 0.00142027, 0.698422, 0.274426
622.97168060800004241, -0.00207972, -0.00192745, -0.000648375, 0.00142454, 0.698266, 0.274163
623.00499694600000566, -0.00208193, -0.00191856, -0.000656349, 0.0014096, 0.699208, 0.274799
623.03831327900002179, -0.00208135, -0.00191357, -0.000653507, 0.00137947, 0.701604, 0.276345
623.07162961300002735, -0.00206712, -0.00192415, -0.000634274, 0.00143416, 0.697589, 0.27429
623.10494597399997474, -0.00206507, -0.00193235, -0.000625784, 0.00149368, 0.692775, 0.271888
623.13826230799998029, -0.00207601, -0.00193893, -0.000632148, 0.00153203, 0.688868, 0.269987
623.17157861299995147, -0.00206555, -0.00193524, -0.000619959, 0.00151077, 0.692122, 0.271769
623.2050449739999749, -0.00206557, -0.00193048, -0.000617706, 0.00148435, 0.695983, 0.27318
623.23836127899994608, -0.00205923, -0.00192843, -0.000610248, 0.00149196, 0.696884, 0.273702
623.27167760800000451, -0.00204713, -0.00192355, -0.000598867, 0.00151047, 0.700602, 0.275066
623.30499569300002349, -0.00203584, -0.00192833, -0.000581952, 0.00154642, 0.699081, 0.275729
623.33831027899998389, -0.00204004, -0.00194215, -0.000578221, 0.00153705, 0.693009, 0.275042
623.3716266410000344, -0.00205137, -0.00194909, -0.000584953, 0.00150042, 0.690736, 0.274423
623.40494297400005053, -0.00206101, -0.00194935, -0.000596982, 0.00145526, 0.691925, 0.273744
623.43825930799994239, -0.00206479, -0.00194875, -0.000601284, 0.00144285, 0.694016, 0.27382
623.47157560799996645, -0.00208416, -0.00194764, -0.000619041, 0.00133563, 0.690712, 0.271283
623.50489194099998258, -0.00209877, -0.00196119, -0.000624319, 0.00123297, 0.68492, 0.270181
623.53835830799994255, -0.00210858, -0.001963, -0.000631385, 0.00113136, 0.676225, 0.267943
623.57167464099995868, -0.00211369, -0.00196391, -0.000632372, 0.0010356, 0.662553, 0.265653
623.60499094099998274, -0.00212138, -0.00196844, -0.000635494, 0.000942163, 0.654211, 0.264169
623.63830730799998037, -0.00215182, -0.00198371, -0.000657045, 0.000710112, 0.651383, 0.261721
623.6716236409999965, -0.0021794, -0.00198562, -0.000700025, 0.000471151, 0.661294, 0.257671
623.70493994599996768, -0.00218797, -0.00198545, -0.000710255, 0.000419146, 0.663506, 0.25672
623.73825630800001818, -0.0021974, -0.00198963, -0.000714999, 0.000316665, 0.658363, 0.255573
623.77157261199999994, -0.00220115, -0.00198574, -0.000717372, 0.000233796, 0.649385, 0.253995
623.80488897400005044, -0.00222765, -0.0019793, -0.00074929, -3.91007e-05, 0.643231, 0.248917
623.83820527399996081, -0.00223054, -0.00198069, -0.000753399, -8.28287e-05, 0.642212, 0.248402
623.87167164100003447, -0.00224534, -0.00197655, -0.000772558, -0.00028192, 0.633197, 0.245221
623.9049879740000506, -0.0022514, -0.00197212, -0.000781395, -0.000455946, 0.617882, 0.242759
623.93830430799994247, -0.00226192, -0.00196247, -0.00079865, -0.000502918, 0.62104, 0.240864
623.97162061200003791, -0.00227065, -0.00196426, -0.000808427, -0.000435104, 0.637393, 0.241345
624.00493696000000909, -0.00228683, -0.00197748, -0.000819863, -0.000516855, 0.640682, 0.241226
624.03825324599995383, -0.00228814, -0.00198443, -0.000818365, -0.000582185, 0.632752, 0.241167
624.07156964099999641, -0.00228684, -0.00199215, -0.000812568, -0.000617682, 0.628604, 0.241431
624.10488598899996759, -0.00229111, -0.00200459, -0.000812353, -0.000650474, 0.632746, 0.24181
624.1382022740000366, -0.00229616, -0.0020048, -0.000822063, -0.000639332, 0.635643, 0.242006
624.17151860800004215, -0.00230266, -0.00200649, -0.000832824, -0.000618847, 0.635267, 0.242433
624.20483499299996311, -0.00229949, -0.00200815, -0.00082859, -0.000651045, 0.637366, 0.242069
624.23830130800001825, -0.0023094, -0.00202136, -0.000833525, -0.000689791, 0.641524, 0.242213
624.27161764100003438, -0.00232977, -0.00204593, -0.000842732, -0.000672329, 0.640069, 0.243278
624.30493394099994475, -0.0023359, -0.00205339, -0.000848444, -0.000648672, 0.64107, 0.243822
624.33825027900002169, -0.00233979, -0.00205958, -0.000850294, -0.000680624, 0.644275, 0.243627
624.37156660799996644, -0.00233875, -0.00207686, -0.000841424, -0.000804246, 0.646022, 0.24194
624.40488294600004338, -0.00234216, -0.00208784, -0.000839724, -0.000871214, 0.649449, 0.241117
624.4381992739999987, -0.00234304, -0.00208231, -0.00083912, -0.000812793, 0.644573, 0.241805
624.47151561199996195, -0.00234104, -0.0020876, -0.000832302, -0.000788534, 0.637995, 0.241346
624.50483197400001245, -0.00234385, -0.00210203, -0.000830092, -0.000635269, 0.633612, 0.241561
624.53814830800001801, -0.00233987, -0.00210456, -0.000830042, -0.000556335, 0.631055, 0.241878
624.57161461199996211, -0.00233623, -0.00211864, -0.00082309, -0.000632105, 0.635871, 0.239242
624.60493094599996766, -0.00232941, -0.00213856, -0.000800342, -0.000789861, 0.633066, 0.23306
624.63824730800001817, -0.00232073, -0.00218075, -0.000786346, -0.000628956, 0.638932, 0.227407
624.67156364100003429, -0.00231591, -0.00219055, -0.000779063, -0.000742056, 0.644613, 0.224201
624.70487997400005042, -0.00231767, -0.00219723, -0.000775969, -0.000819102, 0.651442, 0.22225
624.73819630799994229, -0.00231571, -0.00220809, -0.000769579, -0.000918736, 0.659718, 0.218956
624.77151261200003773, -0.0023212, -0.00222888, -0.000761691, -0.000941303, 0.674674, 0.214253
624.80482894600004329, -0.00232958, -0.00224198, -0.000749158, -0.00108439, 0.682957, 0.209086
624.8381453079999801, -0.00232136, -0.00224261, -0.000726586, -0.00164126, 0.68618, 0.201435
624.87146164099999623, -0.00232309, -0.00224683, -0.000717571, -0.00175115, 0.689353, 0.198357
624.90477792699994097, -0.00231955, -0.00223974, -0.000712274, -0.00196337, 0.685635, 0.197173
624.93824430699999084, -0.00231054, -0.00222823, -0.000708545, -0.00226586, 0.680121, 0.196394
624.97156064099999639, -0.00230488, -0.00222663, -0.000713286, -0.00220968, 0.67881, 0.197864
625.00487694100002045, -0.0023023, -0.00222931, -0.000720545, -0.00205847, 0.682554, 0.199443
625.03819327400003658, -0.00229665, -0.00222378, -0.000722649, -0.00218291, 0.681825, 0.199751
625.07150964100003421, -0.00229105, -0.00222102, -0.000727994, -0.00221784, 0.683857, 0.200751
625.10482597400005034, -0.00229022, -0.00222437, -0.000745206, -0.00200707, 0.689556, 0.203958
625.13814230699995278, -0.00229872, -0.00222795, -0.00076507, -0.00168728, 0.691904, 0.208194
625.17145860699997684, -0.00229558, -0.00222682, -0.000771845, -0.00165561, 0.690832, 0.209493
625.20477553099999568, -0.00229779, -0.00222921, -0.000785609, -0.00147444, 0.689535, 0.212102
625.23809130699999059, -0.00231028, -0.00223763, -0.000795112, -0.00117421, 0.689357, 0.213948
625.27155758399999286, -0.00232104, -0.00224546, -0.000802583, -0.000933673, 0.691086, 0.215197
625.30487397399997462, -0.00232971, -0.00225125, -0.000811086, -0.000734709, 0.691016, 0.216593
625.33819027399999868, -0.00233371, -0.00225148, -0.000820063, -0.000666416, 0.689315, 0.217978
625.37150664099999631, -0.00232966, -0.00224598, -0.000827481, -0.000739363, 0.685841, 0.218984
625.40482297400001244, -0.00233396, -0.00224446, -0.000841489, -0.000699902, 0.680318, 0.220767
625.43813927899998362, -0.00233067, -0.002242, -0.000850212, -0.000694438, 0.672949, 0.221785
625.47145560700005262, -0.00231835, -0.00223045, -0.000890064, -0.000755229, 0.658533, 0.226448
625.50477197400005025, -0.00232685, -0.00223584, -0.000900642, -0.000613575, 0.657502, 0.22766
625.53808827399996062, -0.00231458, -0.0022332, -0.000929084, -0.000559744, 0.646868, 0.230806
625.57140460699997675, -0.00231298, -0.00223463, -0.000939456, -0.00050089, 0.645653, 0.231957
625.60472097399997438, -0.00229458, -0.00221788, -0.000962619, -0.000758645, 0.63042, 0.234481
625.63818725999999515, -0.00228149, -0.00220492, -0.000973054, -0.000979664, 0.621419, 0.23569
625.67150364099995841, -0.00226735, -0.00219202, -0.000987404, -0.00118449, 0.610854, 0.237372
625.70481994099998246, -0.00226365, -0.00218315, -0.00099675, -0.00133569, 0.607754, 0.238582
625.73813627399999859, -0.00226099, -0.00217452, -0.00100459, -0.00149315, 0.601524, 0.23967
625.77145260700001472, -0.0022571, -0.00216861, -0.00100769, -0.001634, 0.600634, 0.240087
625.80476894499997798, -0.00225699, -0.00216188, -0.00100921, -0.00175962, 0.597773, 0.240405
625.83808530700002848, -0.00224881, -0.00214723, -0.00101504, -0.0020467, 0.591091, 0.241611
625.87140161199999966, -0.00224512, -0.00213538, -0.00101983, -0.00227319, 0.586441, 0.242628
625.90471794500001579, -0.00224393, -0.00212569, -0.00102368, -0.00246362, 0.581363, 0.243599
625.93803424500003985, -0.00224348, -0.00211675, -0.0010221, -0.00269359, 0.572025, 0.244119
625.97150061199999982, -0.00224686, -0.00211629, -0.00102737, -0.00264542, 0.568423, 0.245651
626.00481694099994456, -0.00225515, -0.00211375, -0.00103119, -0.00267987, 0.560388, 0.247408
626.03813330699995277, -0.00225729, -0.00211513, -0.00103086, -0.00265645, 0.557325, 0.247743
626.07144961200003763, -0.00225836, -0.00210506, -0.00103304, -0.00286425, 0.55089, 0.249546
626.10476597399997445, -0.00226185, -0.00210204, -0.00103591, -0.00288443, 0.545999, 0.251378
626.13808227399999851, -0.00226992, -0.0020974, -0.00103424, -0.00309999, 0.534697, 0.252796
626.17139860700001464, -0.00227315, -0.00209684, -0.00103817, -0.00301458, 0.530191, 0.255273
626.20471494100002019, -0.00227538, -0.00210089, -0.0010452, -0.00275378, 0.535068, 0.256286
626.23803124500000195, -0.00228308, -0.00211272, -0.00105833, -0.00210271, 0.529727, 0.26146
626.27134760700005245, -0.00229217, -0.00211177, -0.00105462, -0.00239265, 0.51144, 0.263327
626.30466464100004487, -0.00229534, -0.002121, -0.00105711, -0.00212369, 0.502493, 0.265076
626.3381302789999836, -0.00229634, -0.00212536, -0.00105712, -0.00195139, 0.501636, 0.264765
626.37144664100003411, -0.00229639, -0.00212944, -0.00105482, -0.00193084, 0.500636, 0.262768
626.40476297400005024, -0.00229009, -0.0021333, -0.00105725, -0.001686, 0.508531, 0.260778
626.43807924999998704, -0.00227754, -0.00213715, -0.0010611, -0.00131383, 0.52057, 0.258486
626.47139564099995823, -0.00227671, -0.00213817, -0.00105757, -0.00138026, 0.521247, 0.256089
626.50471197399997436, -0.00227195, -0.00213981, -0.00105496, -0.00137329, 0.523411, 0.253168
626.53802827399999842, -0.00226117, -0.00213513, -0.00105543, -0.00162369, 0.524446, 0.254089
626.57134464099999605, -0.00226223, -0.0021374, -0.00105516, -0.00146653, 0.52255, 0.254488
626.60466097400001217, -0.00225876, -0.0021385, -0.00105334, -0.0014253, 0.522843, 0.253051
626.63797727400003623, -0.00224856, -0.0021365, -0.00105743, -0.0012438, 0.528285, 0.255129
626.67144361199996183, -0.00223768, -0.00213627, -0.00105902, -0.00116468, 0.527889, 0.256683
626.70475997400001233, -0.00223257, -0.00213559, -0.00105625, -0.00140476, 0.525744, 0.255101
626.73807628299994121, -0.00223042, -0.00213411, -0.00105802, -0.00128811, 0.529821, 0.255955
626.77139261199999964, -0.00222571, -0.00213269, -0.00105774, -0.00123923, 0.532577, 0.256304
626.80470897400005015, -0.00221818, -0.00213263, -0.00106294, -0.0010869, 0.53363, 0.259369
626.83802530699995259, -0.00221322, -0.00213359, -0.00106753, -0.000991001, 0.532653, 0.261972
626.87134160699997665, -0.00220143, -0.00213584, -0.00107277, -0.0010242, 0.528701, 0.264526
626.9046579449999399, -0.00219396, -0.00213941, -0.00108199, -0.000734392, 0.526993, 0.26884
626.93797427399999833, -0.00218716, -0.00214185, -0.00108917, -0.000637006, 0.524528, 0.272709
626.97129060700001446, -0.00218088, -0.00214362, -0.00109356, -0.000651198, 0.521613, 0.274825
627.00475697399997443, -0.00217146, -0.00214643, -0.00110068, -0.000535947, 0.519343, 0.278153
627.03807330699999056, -0.00216962, -0.00214974, -0.00110685, -0.000464192, 0.515464, 0.280833
627.07138964099999612, -0.00216271, -0.00215502, -0.00111714, -0.000247507, 0.511237, 0.284714
627.10470597400001225, -0.00215864, -0.00215751, -0.00112325, -2.79739e-05, 0.51091, 0.287196
627.13802227899998343, -0.00215907, -0.00216165, -0.00113264, 0.000253989, 0.509267, 0.290831
627.17133861199999956, -0.0021485, -0.00216775, -0.00114229, 0.000236605, 0.501038, 0.293535
627.20465494500001569, -0.00214525, -0.00217156, -0.00114739, -5.24142e-05, 0.491764, 0.294237
627.2379713069999525, -0.00214309, -0.00217504, -0.00115504, -2.80651e-05, 0.487445, 0.296559
627.27128763999996863, -0.00213397, -0.00217774, -0.00115988, -0.000159405, 0.481761, 0.297528
627.30460397399997419, -0.00212489, -0.00218294, -0.00116842, -0.000293039, 0.473147, 0.299107
627.33792030699999032, -0.00211594, -0.00218495, -0.00117644, -0.000648428, 0.46591, 0.301763
627.37138661200003753, -0.00211207, -0.00218339, -0.00117534, -0.0011408, 0.459803, 0.301062
627.40470291700000871, -0.00210408, -0.00218573, -0.00118415, -0.00122118, 0.455992, 0.304246
627.4380192739999984, -0.00208992, -0.00218847, -0.00119085, -0.00159758, 0.447004, 0.305567
627.47133560700001453, -0.00209233, -0.00219536, -0.00119736, -0.00163518, 0.438865, 0.306302
627.50465197400001216, -0.00209631, -0.00220321, -0.00120621, -0.00155488, 0.431455, 0.308089
627.53796830700002829, -0.00208571, -0.00220003, -0.00120635, -0.00249237, 0.4216, 0.3076
627.57128461199999947, -0.00207611, -0.00219743, -0.00120707, -0.00316471, 0.415371, 0.307436
627.60460096899998916, -0.00207072, -0.00219814, -0.00120661, -0.00355954, 0.410196, 0.307148
627.63791727399996034, -0.00207252, -0.00219897, -0.0012069, -0.00337796, 0.411215, 0.307341
627.67123363999996855, -0.00207568, -0.00220299, -0.00120999, -0.00297359, 0.411196, 0.308911
627.70469997400005013, -0.0020747, -0.00220844, -0.00121233, -0.00295906, 0.405895, 0.310133
627.7380162739999605, -0.00207644, -0.00221305, -0.00121442, -0.00263498, 0.40501, 0.311455
627.77133263999996871, -0.00208244, -0.00221826, -0.00121654, -0.00246433, 0.401641, 0.313723
627.80464954499996111, -0.00208478, -0.00221971, -0.00121776, -0.00229931, 0.400857, 0.314687
627.83796527799995602, -0.00208658, -0.00222047, -0.00121777, -0.00221128, 0.40062, 0.314098
627.87128164000000652, -0.00208573, -0.00222013, -0.00121887, -0.00204383, 0.402088, 0.31411
627.90459791700004644, -0.00207599, -0.00222017, -0.00122639, -0.0011644, 0.407872, 0.316556
627.9379143070000282, -0.00207247, -0.00221795, -0.00123388, -0.000473319, 0.414155, 0.319286
627.97123064499999145, -0.00206538, -0.00221803, -0.00123645, 8.33362e-05, 0.416397, 0.319239
628.00454697400004989, -0.00206485, -0.00221513, -0.00123376, 0.000271106, 0.418192, 0.316903
628.03786327800003164, -0.00206272, -0.00221281, -0.00123491, 0.000305936, 0.420417, 0.316442
628.07132958299996517, -0.00206088, -0.00220816, -0.00123711, 0.00038223, 0.424917, 0.315995
628.10464597400005005, -0.00206233, -0.00220211, -0.00123699, 0.000664613, 0.429486, 0.313464
628.13796227399996042, -0.00206095, -0.00219609, -0.00123388, 0.000503254, 0.43325, 0.308719
628.17127861200003736, -0.00205796, -0.00219427, -0.00123068, 0.000193786, 0.433552, 0.305696
628.2045949449999398, -0.00205503, -0.00219474, -0.00122992, -0.000234384, 0.433254, 0.305661
628.2379113069999903, -0.00205821, -0.00219403, -0.00122757, -0.000306342, 0.432506, 0.303811
628.27122760700001436, -0.00205652, -0.00219187, -0.00122376, -0.000657793, 0.432852, 0.300224
628.30454397400001199, -0.00205379, -0.00219204, -0.00122196, -0.000924939, 0.432026, 0.298632
628.33786030700002811, -0.00205452, -0.00218927, -0.0012185, -0.00115489, 0.433524, 0.296134
628.37117664000004424, -0.00205072, -0.0021904, -0.0012189, -0.0013723, 0.432559, 0.296234
628.40464294499997777, -0.00204671, -0.00219074, -0.00122167, -0.00142275, 0.433443, 0.297817
628.43795930700002828, -0.00204573, -0.00219164, -0.00122266, -0.00147546, 0.432692, 0.298285
628.47127565899995716, -0.00204097, -0.00219512, -0.00122885, -0.00125746, 0.43111, 0.301145
628.50459194500001558, -0.0020414, -0.00219766, -0.00123437, -0.000991807, 0.43113, 0.304271
628.5379083069999524, -0.00203868, -0.00219997, -0.00124, -0.000605984, 0.431694, 0.307468
628.57122460699997646, -0.00204043, -0.0022026, -0.00124467, -0.000196966, 0.431401, 0.309214
628.60454094499993971, -0.00204079, -0.00221194, -0.00126157, 0.000292646, 0.42844, 0.315436
628.63785730699999021, -0.00203787, -0.0022247, -0.00128826, 0.000997521, 0.426459, 0.325744
628.67117360700001427, -0.00203989, -0.00222793, -0.00129636, 0.00126456, 0.426804, 0.328805
628.7044899740000119, -0.00204425, -0.00223001, -0.0012996, 0.00150651, 0.426306, 0.329735
628.73780630700002803, -0.00203996, -0.00223446, -0.00130866, 0.0016065, 0.423468, 0.331265
628.7712726400000065, -0.00204213, -0.00223958, -0.0013181, 0.00198344, 0.423054, 0.333764
628.80458894499997768, -0.00204346, -0.00224089, -0.00131923, 0.00223192, 0.42401, 0.334459
628.83790527799999381, -0.00204335, -0.0022442, -0.00132522, 0.00239308, 0.422687, 0.335261
628.87122165499999937, -0.00204379, -0.0022474, -0.00133044, 0.00267507, 0.422883, 0.336586
628.90453797400004987, -0.00204103, -0.00225075, -0.00133735, 0.00277269, 0.421274, 0.337416
628.93785430699995231, -0.00203459, -0.00225262, -0.00134173, 0.00260507, 0.418337, 0.336994
628.97117060699997637, -0.00202458, -0.00225354, -0.00134602, 0.00214229, 0.412142, 0.334903
629.004486973999974, -0.00202014, -0.0022539, -0.00134841, 0.00198212, 0.409165, 0.333886
629.03780330699999013, -0.00201672, -0.00225569, -0.0013534, 0.00207209, 0.407355, 0.334098
629.07111960700001418, -0.0020189, -0.00225558, -0.0013533, 0.00214554, 0.408757, 0.334791
629.10458597399997416, -0.00202126, -0.00225553, -0.00135213, 0.00231583, 0.412131, 0.336161
629.13790227399999822, -0.00202701, -0.00225381, -0.00134945, 0.00226409, 0.413236, 0.336072
629.17121864000000642, -0.00203036, -0.00225283, -0.00134877, 0.00211463, 0.412925, 0.335858
629.20453497400001197, -0.00203256, -0.00225331, -0.00135018, 0.00202201, 0.413343, 0.336445
629.23785127400003603, -0.00203011, -0.00225421, -0.00135075, 0.00212556, 0.413782, 0.336849
629.27116764000004423, -0.00203672, -0.00225437, -0.00135018, 0.00213251, 0.413651, 0.33666
629.30448397400004978, -0.00203755, -0.00225437, -0.00135024, 0.00225699, 0.414409, 0.336996
629.33780030699995223, -0.00202421, -0.00225442, -0.00135132, 0.00249173, 0.417071, 0.337424
629.37111660699997628, -0.00202302, -0.00225368, -0.00135224, 0.00253011, 0.418775, 0.337678
629.40443293999999241, -0.0020295, -0.00225207, -0.00135064, 0.00238363, 0.417997, 0.337356
629.43774930699999004, -0.00202881, -0.00225174, -0.00134876, 0.00242571, 0.41806, 0.337078
629.47121560699997644, -0.00201436, -0.00225242, -0.00135062, 0.00275112, 0.420526, 0.337758
629.50453197299998465, -0.00201297, -0.00225264, -0.00134984, 0.00278179, 0.42077, 0.337193
629.53784827799995583, -0.00200682, -0.00225298, -0.00134998, 0.00289825, 0.421675, 0.336822
629.57116460700001426, -0.0019888, -0.00225099, -0.00135406, 0.00303497, 0.424413, 0.33726
629.60448097300002246, -0.00195364, -0.00224631, -0.00136295, 0.00331758, 0.430167, 0.338542
629.63779727300004652, -0.00192093, -0.00224184, -0.00137025, 0.00356059, 0.435524, 0.338844
629.67111360700005207, -0.00191737, -0.00224125, -0.00137098, 0.00361902, 0.436271, 0.338938
629.70442994500001532, -0.00189853, -0.00223726, -0.00137592, 0.00368879, 0.43971, 0.338878
629.73774627299997064, -0.00188666, -0.00223279, -0.00138142, 0.0034107, 0.442158, 0.338375
629.77106263999996827, -0.00187949, -0.00223, -0.00138571, 0.00333613, 0.44424, 0.338588
629.80452898299995468, -0.00186938, -0.00222856, -0.00138664, 0.00347571, 0.446465, 0.336418
629.83784524500003954, -0.00186399, -0.0022267, -0.00138841, 0.00365478, 0.448592, 0.335417
629.87116161200003717, -0.00186364, -0.00222647, -0.00138779, 0.00388559, 0.449269, 0.334774
629.9044779450000533, -0.00184899, -0.00222061, -0.00139325, 0.00418574, 0.453522, 0.334444
629.93779433099996368, -0.001823, -0.00221395, -0.00140158, 0.00402364, 0.457737, 0.332369
629.97111064000000624, -0.00182406, -0.00221367, -0.00140172, 0.00399105, 0.458101, 0.332131
630.00442697300002237, -0.00182381, -0.00221539, -0.00140246, 0.00367405, 0.457549, 0.331696
630.03774330700002793, -0.00182298, -0.00221731, -0.00140501, 0.00336468, 0.456991, 0.331401
630.07105961100000968, -0.00182698, -0.00221979, -0.00140446, 0.00341076, 0.455918, 0.3312
630.10437593999995443, -0.00183084, -0.00222013, -0.0014029, 0.00349027, 0.455496, 0.329901
630.13784230700002809, -0.00183211, -0.00221895, -0.00140265, 0.00354782, 0.455943, 0.329023
630.17115864000004422, -0.00183374, -0.00222057, -0.00140126, 0.00339917, 0.455042, 0.328816
630.20447497299994666, -0.00182955, -0.00222336, -0.00140164, 0.0033663, 0.453773, 0.330127
630.23779130699995221, -0.00182914, -0.00222365, -0.00140185, 0.00347835, 0.45348, 0.330979
630.27110760699997627, -0.00183003, -0.00222428, -0.0014033, 0.00367508, 0.453177, 0.331776
630.3044239399999924, -0.00183097, -0.00222942, -0.00140646, 0.00364458, 0.451646, 0.332669
630.33774030699999003, -0.00182668, -0.00223289, -0.00140897, 0.00377589, 0.45028, 0.333823
630.37105661099997178, -0.0018275, -0.00223311, -0.00141144, 0.00393074, 0.45005, 0.333968
630.40437297300002228, -0.00182734, -0.00223642, -0.00141422, 0.00396474, 0.448831, 0.334979
630.43768930700002784, -0.00182772, -0.00223847, -0.00141686, 0.00413109, 0.448414, 0.336535
630.47100564000004397, -0.00182572, -0.00224215, -0.00142023, 0.00436298, 0.446912, 0.337166
630.50447194000003037, -0.00182311, -0.00224687, -0.0014259, 0.0045509, 0.444784, 0.337818
630.537788307000028, -0.00182238, -0.00224745, -0.00142682, 0.00456266, 0.444696, 0.338029
630.57110464000004413, -0.00181947, -0.00225149, -0.00143183, 0.00454485, 0.443236, 0.338724
630.60442097299994657, -0.00181681, -0.00225902, -0.00144056, 0.00451004, 0.440074, 0.339854
630.63773727800003144, -0.00181412, -0.00226287, -0.00144518, 0.00445247, 0.438449, 0.34039
630.67105397299997094, -0.00181458, -0.00226406, -0.00144745, 0.00440532, 0.438432, 0.340869
630.70436997299998438, -0.00180878, -0.00227186, -0.00145676, 0.00412408, 0.436291, 0.342179
630.73768630699998994, -0.00179974, -0.00228207, -0.00147203, 0.00384116, 0.431642, 0.343016
630.77100264000000607, -0.00179966, -0.00228428, -0.00147563, 0.00375234, 0.430926, 0.343385
630.80431894499997725, -0.00179757, -0.00228812, -0.00148239, 0.00367617, 0.428926, 0.343729
630.83778527799995572, -0.00179353, -0.00229521, -0.00149505, 0.00367639, 0.42546, 0.344645
630.87110161099997185, -0.00179182, -0.00230095, -0.00150539, 0.00354595, 0.423155, 0.345454
630.90441794000003028, -0.00179008, -0.00230325, -0.00150991, 0.00357688, 0.421509, 0.345482
630.93773427300004641, -0.00178716, -0.00230293, -0.00150992, 0.00369934, 0.42155, 0.345533
630.97105064000004404, -0.00178469, -0.00230606, -0.001514, 0.00364483, 0.421446, 0.346242
631.00436693999995441, -0.00178503, -0.00230709, -0.0015153, 0.00375833, 0.421705, 0.346756
631.03767980800000714, -0.00178605, -0.00230704, -0.00151606, 0.00380613, 0.421578, 0.346846
631.07099227699995936, -0.00178845, -0.0023082, -0.00151803, 0.00388589, 0.421589, 0.347405
631.10430477900001733, -0.00178702, -0.00230906, -0.00152061, 0.00407211, 0.421629, 0.348123
631.13761721900004886, -0.00178773, -0.00230955, -0.00152215, 0.00399657, 0.421253, 0.348019
631.17092968299994027, -0.00179314, -0.00231119, -0.00152493, 0.00367686, 0.419641, 0.347517
631.2043922200000452, -0.00179731, -0.00231184, -0.00152438, 0.00353085, 0.419346, 0.347283
631.2377046369999789, -0.00179681, -0.00231334, -0.00152394, 0.00353982, 0.420367, 0.347869
631.27101707700001043, -0.00179685, -0.00231357, -0.00152174, 0.00359377, 0.421545, 0.348043
631.30432995900002879, -0.00179895, -0.00231413, -0.0015197, 0.00346223, 0.421982, 0.347709
631.33764200899997832, -0.00180292, -0.00231466, -0.00151867, 0.00336435, 0.421499, 0.347595
631.37095451100003629, -0.00180492, -0.0023131, -0.00151957, 0.00363464, 0.421262, 0.348157
631.40426691799996206, -0.00180356, -0.00231225, -0.0015153, 0.00376905, 0.424161, 0.348118
631.43757941499995923, -0.00180335, -0.00231249, -0.00151313, 0.00356588, 0.425239, 0.347428
631.4708919170000172, -0.00180222, -0.00231387, -0.00151479, 0.00351905, 0.425175, 0.347862
631.50420438599996942, -0.00180094, -0.00231481, -0.00151679, 0.00349518, 0.424104, 0.348255
631.53766683699996065, -0.00179827, -0.0023161, -0.00152011, 0.00349129, 0.422751, 0.348857
631.57097924400000011, -0.00179563, -0.00231665, -0.00152301, 0.00368169, 0.42213, 0.349881
631.6042917459999444, -0.00179499, -0.0023151, -0.00152344, 0.00390661, 0.421928, 0.350086
631.63760421400002087, -0.00179519, -0.00231599, -0.00152468, 0.00397726, 0.421392, 0.350761
631.67091671100001804, -0.00179435, -0.00231728, -0.00152629, 0.00419927, 0.421351, 0.351999
631.70422917999997026, -0.00179419, -0.00231603, -0.00152812, 0.00433985, 0.42088, 0.352161
631.73754164900003616, -0.00179356, -0.00231606, -0.00152981, 0.00449094, 0.421193, 0.35282
631.77085419800005184, -0.00179096, -0.00231636, -0.00153288, 0.00462898, 0.420749, 0.353461
631.80416658599995117, -0.00178956, -0.00231439, -0.0015345, 0.00480182, 0.420318, 0.353348
631.83747905500001707, -0.00178558, -0.00231396, -0.00153472, 0.00500506, 0.420868, 0.353859
631.87094147699997393, -0.00178506, -0.00231387, -0.00153078, 0.00493541, 0.422072, 0.353493
631.90425394099997902, -0.00178082, -0.00231382, -0.00153068, 0.00502224, 0.422852, 0.353708
631.93756641400000262, -0.00177932, -0.00231396, -0.00153133, 0.00515586, 0.423352, 0.354133
631.97087891199998921, -0.00178193, -0.00231348, -0.00152978, 0.00513721, 0.423503, 0.353721
632.00419137999995201, -0.00178665, -0.00231263, -0.00152882, 0.00512784, 0.423277, 0.353337
632.03750727900001039, -0.00179057, -0.00231241, -0.00152809, 0.0051059, 0.422864, 0.353125
632.07082360599997628, -0.00179264, -0.00231327, -0.00152856, 0.00507805, 0.422341, 0.353537
632.10413997299997391, -0.00179714, -0.00231308, -0.00152903, 0.0051357, 0.421627, 0.353729
632.13745787300001666, -0.00180668, -0.00231214, -0.00152687, 0.00508168, 0.421156, 0.353061
632.17077263999999559, -0.00180542, -0.0023123, -0.00152508, 0.00493192, 0.421692, 0.352499
632.20408894499996677, -0.00180654, -0.00231338, -0.00152519, 0.0048534, 0.421425, 0.352634
632.23755527799994525, -0.00181031, -0.00231262, -0.00152519, 0.00492307, 0.421396, 0.352543
632.27087163999999575, -0.00181546, -0.00231216, -0.00152536, 0.00501874, 0.420882, 0.352581
632.30418794000001981, -0.00181592, -0.00231075, -0.00152636, 0.00508671, 0.421271, 0.352309
632.33750430600002801, -0.0018172, -0.00231034, -0.00152669, 0.00514085, 0.421296, 0.35224
632.37082064000003356, -0.00181616, -0.00230975, -0.00152695, 0.00510042, 0.421524, 0.351933
632.40413694400001532, -0.00182215, -0.00230908, -0.00152566, 0.00505946, 0.421234, 0.351303
632.43745327800002087, -0.00182857, -0.00231177, -0.00152319, 0.004867, 0.420128, 0.351195
632.470769611000037, -0.00183248, -0.00231134, -0.00152174, 0.00494202, 0.419258, 0.350989
632.50408638700002939, -0.00182349, -0.00230831, -0.00152391, 0.00505285, 0.420214, 0.35033
632.537402277999945, -0.00180897, -0.00230365, -0.0015273, 0.00516206, 0.421853, 0.349911
632.57071860600001401, -0.00179843, -0.0022995, -0.00153049, 0.00528128, 0.423552, 0.349983
632.60418497299997398, -0.00178796, -0.00229505, -0.00153477, 0.00537785, 0.425512, 0.349948
632.63750130599999011, -0.00177432, -0.00229194, -0.00153911, 0.00538085, 0.42694, 0.349157
632.67081763999999566, -0.00176686, -0.00228949, -0.00154242, 0.0053962, 0.428104, 0.34828
632.70413397300001179, -0.0017622, -0.00228742, -0.00154275, 0.00533369, 0.428868, 0.348703
632.73745027300003585, -0.00175835, -0.00228764, -0.00154502, 0.0051422, 0.42935, 0.348003
632.7707666109999991, -0.00175152, -0.00228535, -0.00154817, 0.00498276, 0.430572, 0.347877
632.80408297300004961, -0.00173346, -0.00227794, -0.0015546, 0.00503543, 0.432781, 0.347954
632.83739927800002079, -0.00172313, -0.00227376, -0.00156009, 0.00507196, 0.433968, 0.346991
632.8707156399999576, -0.00171987, -0.00227177, -0.00156334, 0.00508173, 0.434543, 0.34604
632.90403197299997373, -0.00171641, -0.00226507, -0.00156515, 0.00537115, 0.435818, 0.345728
632.93749827299996014, -0.00169686, -0.00225593, -0.0015748, 0.00518623, 0.43887, 0.344293
632.97081461100003708, -0.00169606, -0.00225527, -0.0015748, 0.00514716, 0.438853, 0.344146
633.00413097299997389, -0.00169024, -0.00225661, -0.00157898, 0.00496941, 0.438784, 0.342803
633.03744727299999795, -0.00169372, -0.00225918, -0.00157805, 0.00491301, 0.438222, 0.34318
633.07076363999999558, -0.0016882, -0.00225598, -0.00158356, 0.00482507, 0.438959, 0.341684
633.10407997300001171, -0.00167792, -0.00225322, -0.00158834, 0.00478835, 0.439683, 0.3402
633.13739630600002783, -0.00165076, -0.00224986, -0.00159523, 0.00472045, 0.440897, 0.338105
633.17071264000003339, -0.00162663, -0.00224709, -0.00160191, 0.00448838, 0.442207, 0.335795
633.20402894400001514, -0.00161243, -0.00224541, -0.00160609, 0.00436111, 0.442887, 0.334397
633.23734530599995196, -0.00160444, -0.00224896, -0.0016071, 0.00425015, 0.442312, 0.334192
633.27081160600005205, -0.00160848, -0.00224923, -0.00160548, 0.00431241, 0.442197, 0.335173
633.30412791100002323, -0.00161474, -0.00225042, -0.00160384, 0.00447192, 0.441949, 0.336851
633.33744424899998648, -0.00162674, -0.0022535, -0.00160393, 0.00452377, 0.441242, 0.337208
633.37076060599997618, -0.00164098, -0.00225594, -0.00160331, 0.00458947, 0.440667, 0.338113
633.40407693999998173, -0.0016414, -0.00225599, -0.00160376, 0.00462274, 0.440709, 0.338221
633.43739327799994498, -0.00163951, -0.00225514, -0.00160445, 0.00470645, 0.441127, 0.338275
633.47070960600001399, -0.00166213, -0.00225987, -0.00160483, 0.00480761, 0.440076, 0.339953
633.50402597300001162, -0.0016677, -0.00226645, -0.00160843, 0.00487979, 0.438658, 0.340139
633.53734225400000923, -0.00167348, -0.00226764, -0.00160892, 0.00493305, 0.438427, 0.34047
633.5706586400000333, -0.00168383, -0.00226988, -0.00161032, 0.00493845, 0.437817, 0.340551
633.60397494400001506, -0.00168906, -0.00227565, -0.00161474, 0.00491067, 0.436297, 0.340881
633.63744131999999354, -0.00170215, -0.00227884, -0.00161647, 0.00482468, 0.435238, 0.341297
633.67075764000003346, -0.00171407, -0.00228187, -0.00161393, 0.00455696, 0.434894, 0.341844
633.70407397300004959, -0.00171944, -0.00228772, -0.00161909, 0.00455153, 0.433299, 0.342295
633.73739030599995203, -0.00171907, -0.00229335, -0.00162052, 0.00444036, 0.432579, 0.343173
633.77070660599997609, -0.00171646, -0.00229593, -0.00162198, 0.00431339, 0.431978, 0.343468
633.80402297299997372, -0.00171797, -0.00229816, -0.00162467, 0.00421898, 0.431062, 0.343297
633.83733926800005065, -0.00172084, -0.00229876, -0.00162595, 0.00421577, 0.4306, 0.343058
633.87065563900000598, -0.00172734, -0.00229928, -0.00162598, 0.00421665, 0.430418, 0.343106
633.90397194399997716, -0.00173141, -0.00230062, -0.00162599, 0.00427524, 0.430366, 0.343186
633.93728827300003559, -0.00173452, -0.00230164, -0.00162616, 0.00432083, 0.43028, 0.343265
633.97075783000002502, -0.00174107, -0.00230339, -0.00162631, 0.0044201, 0.430143, 0.343553
634.00407097300001169, -0.00174296, -0.00230342, -0.00162573, 0.00441492, 0.430215, 0.343604
634.03738730600002782, -0.00176533, -0.00230267, -0.0016257, 0.00429448, 0.429538, 0.344017
634.07070363900004395, -0.00176993, -0.00230235, -0.00162573, 0.00426245, 0.429386, 0.344032
634.1040199730000495, -0.00178007, -0.00230343, -0.00162575, 0.00422718, 0.429219, 0.344396
634.13733627299995987, -0.00179327, -0.00230487, -0.00162566, 0.00422162, 0.428729, 0.344548
634.17065261100003681, -0.00179734, -0.00230865, -0.00162762, 0.00430913, 0.428203, 0.344314
634.20396894400005294, -0.00180617, -0.00231116, -0.0016283, 0.00432673, 0.428049, 0.344599
634.23728527299999769, -0.00180735, -0.00231207, -0.00162822, 0.00435208, 0.428487, 0.344753
634.27060163900000589, -0.00181875, -0.00231356, -0.00162798, 0.00437831, 0.428054, 0.344893
634.30391797300001144, -0.00182347, -0.00231513, -0.00162846, 0.00449558, 0.427894, 0.344942
634.33738427799994497, -0.00181769, -0.00231416, -0.00162819, 0.00460315, 0.428483, 0.344981
634.37070063900000605, -0.00180156, -0.00231072, -0.00162661, 0.00462601, 0.43007, 0.345231
634.40401694399997723, -0.00183732, -0.00231512, -0.00162584, 0.00449994, 0.4279, 0.34531
634.43733330600002773, -0.00186003, -0.00231843, -0.00162616, 0.00465062, 0.426739, 0.34527
634.47064961099999891, -0.00185534, -0.00231852, -0.00162776, 0.0048309, 0.427018, 0.344985
634.50396594400001504, -0.00183977, -0.00231602, -0.00162963, 0.00503951, 0.428053, 0.344432
634.53728230599995186, -0.00183345, -0.00231577, -0.00162874, 0.00509506, 0.428727, 0.34457
634.57059861100003673, -0.00182607, -0.00231521, -0.00162745, 0.00518238, 0.429823, 0.344825
634.60391494400005286, -0.00181492, -0.00230955, -0.00162717, 0.00512405, 0.432206, 0.344987
634.63723130599998967, -0.00179799, -0.00230714, -0.00162971, 0.00497838, 0.432611, 0.344591
634.67069761100003689, -0.00179758, -0.0023079, -0.00162931, 0.0047696, 0.432374, 0.344756
634.70401393899999221, -0.00179948, -0.0023087, -0.00162791, 0.00449931, 0.432441, 0.345413
634.73733030599998983, -0.00180188, -0.0023116, -0.00162717, 0.004251, 0.432, 0.346072
634.77064657699997952, -0.00180438, -0.00231065, -0.00162634, 0.00399442, 0.432492, 0.346227
634.80396297300001152, -0.0018038, -0.0023102, -0.00162622, 0.00378365, 0.432498, 0.346286
634.83728101999997762, -0.00181002, -0.00231115, -0.00162567, 0.00376208, 0.43227, 0.346851
634.8705956060000517, -0.0018161, -0.00231174, -0.00162561, 0.00368339, 0.432011, 0.347059
634.90391197300004933, -0.00184517, -0.00231142, -0.00162361, 0.00382003, 0.43231, 0.348359
634.93722827700003108, -0.00186284, -0.00231449, -0.00162362, 0.0041643, 0.432157, 0.349817
634.9705446389999679, -0.00187792, -0.00231705, -0.00162045, 0.00433491, 0.431814, 0.350772
635.00386093899999196, -0.00188041, -0.00231854, -0.00162123, 0.00444414, 0.431447, 0.351056
635.03732730599995193, -0.00189208, -0.0023198, -0.00162185, 0.00448049, 0.431005, 0.351408
635.0706436110000368, -0.00191692, -0.00232267, -0.0016198, 0.00470381, 0.430697, 0.353166
635.10395994400005293, -0.0019207, -0.00232325, -0.00161945, 0.00482904, 0.430696, 0.35351
635.13727627699995537, -0.0019142, -0.00232297, -0.00162129, 0.00503026, 0.430637, 0.353332
635.17059261099996093, -0.00192516, -0.00232614, -0.0016241, 0.00517134, 0.429473, 0.35431
635.20390897300001143, -0.00192434, -0.00232774, -0.00162636, 0.0053036, 0.428817, 0.355114
635.23722530600002756, -0.00191921, -0.00232964, -0.00162836, 0.0053561, 0.428275, 0.355442
635.27054163900004369, -0.00192698, -0.00232819, -0.00162728, 0.00525177, 0.428464, 0.354505
635.30385793899995406, -0.00192816, -0.00233239, -0.00162899, 0.00498381, 0.427427, 0.353909
635.337174277000031, -0.00193531, -0.00233533, -0.00162809, 0.004891, 0.427388, 0.354426
635.37064060600005178, -0.00193485, -0.00233653, -0.00162937, 0.00475218, 0.426634, 0.353504
635.4039569730000494, -0.00193266, -0.00233751, -0.00163114, 0.00471817, 0.425859, 0.352968
635.43727327700003116, -0.00193087, -0.00233741, -0.00163257, 0.00480209, 0.4255, 0.352848
635.47058963899996797, -0.00193123, -0.00233421, -0.00163176, 0.00500273, 0.426336, 0.353037
635.50390594400005284, -0.00193033, -0.002331, -0.00162911, 0.00517419, 0.428351, 0.354304
635.53722230599998966, -0.00192796, -0.00232854, -0.0016279, 0.00524356, 0.429619, 0.35459
635.57053859200004808, -0.00193016, -0.00232797, -0.00162779, 0.00527523, 0.429791, 0.354579
635.60385493900002984, -0.00193436, -0.0023268, -0.00162799, 0.00537572, 0.430322, 0.354617
635.6371712730000354, -0.00194731, -0.00232878, -0.00162722, 0.00533725, 0.430012, 0.354575
635.67048760600005153, -0.00195165, -0.00233027, -0.00162772, 0.00528468, 0.429814, 0.354474
635.70380391499998041, -0.00196975, -0.00233275, -0.00162635, 0.00526185, 0.429338, 0.354235
635.73727027699999326, -0.00198732, -0.00233685, -0.00162565, 0.00522075, 0.428892, 0.353992
635.77058661099999881, -0.00199711, -0.00234088, -0.00162524, 0.00526685, 0.428672, 0.353856
635.80390297300004931, -0.00198539, -0.00234052, -0.00162705, 0.00534894, 0.429181, 0.354185
635.83721930599995176, -0.0019829, -0.0023405, -0.00162811, 0.00535213, 0.429345, 0.354453
635.87053558699994937, -0.00198611, -0.00234325, -0.00162865, 0.0053653, 0.429178, 0.353953
635.90385193899999194, -0.00198725, -0.0023483, -0.00162866, 0.00560486, 0.429161, 0.35383
635.9371682729999975, -0.00197614, -0.00234702, -0.00163276, 0.00580125, 0.430063, 0.354131
635.97048460600001363, -0.00196282, -0.00234396, -0.0016356, 0.00596427, 0.431062, 0.354644
636.00380097300001125, -0.0019585, -0.00234248, -0.00163801, 0.00613162, 0.431732, 0.354768
636.03711727699999301, -0.0019514, -0.00233685, -0.00163993, 0.00595451, 0.432353, 0.354989
636.07058361099996091, -0.00194087, -0.00233229, -0.00164389, 0.00584145, 0.433171, 0.354822
636.10389993900002992, -0.00193447, -0.00232901, -0.00164628, 0.00585816, 0.433865, 0.354787
636.13721627200004605, -0.00193496, -0.00233041, -0.00164275, 0.00578743, 0.433376, 0.355284
636.1705326439999908, -0.00195613, -0.00233798, -0.00163422, 0.00569858, 0.431598, 0.35611
636.20384897199994612, -0.00197073, -0.00233082, -0.00163633, 0.00576767, 0.432656, 0.356778
636.23716530599995167, -0.00199578, -0.0023258, -0.00163616, 0.0059151, 0.433443, 0.357303
636.2704816389999678, -0.00201403, -0.00232466, -0.00163195, 0.00598343, 0.433507, 0.358068
636.30379793899999186, -0.00200979, -0.00231957, -0.00163049, 0.00576485, 0.433732, 0.3587
636.33711427699995511, -0.00200884, -0.00231941, -0.00163192, 0.0056811, 0.433597, 0.35845
636.37043060600001354, -0.00201425, -0.00232067, -0.00163085, 0.00565901, 0.433272, 0.358679
636.40389697199998409, -0.00202788, -0.002318, -0.00162864, 0.00575434, 0.433676, 0.359212
636.43721330599998964, -0.00205026, -0.00232133, -0.00162172, 0.00583173, 0.432848, 0.360676
636.47052961099996082, -0.00206085, -0.00232774, -0.00161922, 0.00582083, 0.431716, 0.361031
636.5038459720000219, -0.00207138, -0.00233282, -0.00161747, 0.00597823, 0.430966, 0.361365
636.53716226799997457, -0.00208228, -0.0023407, -0.00161518, 0.00586576, 0.429565, 0.361612
636.57047861099999864, -0.0020939, -0.00234896, -0.00161123, 0.00579722, 0.428082, 0.36236
636.60379494400001477, -0.00209891, -0.00234931, -0.00160696, 0.00593101, 0.427915, 0.363421
636.63711124400003882, -0.00210642, -0.00235285, -0.00160755, 0.00595223, 0.427284, 0.363503
636.67042763899996771, -0.00212047, -0.00235692, -0.00160476, 0.005991, 0.426513, 0.364116
636.70374397199998384, -0.0021226, -0.00235808, -0.00160456, 0.0059993, 0.426318, 0.364184
636.7370603059999894, -0.0021263, -0.00235942, -0.00160294, 0.00614618, 0.426194, 0.364515
636.7705266059999758, -0.00213132, -0.0023602, -0.00160103, 0.0062362, 0.426057, 0.364949
636.803842971999984, -0.00213138, -0.00236513, -0.00160229, 0.00602403, 0.425156, 0.364839
636.83715927200000806, -0.00213041, -0.00236693, -0.00160373, 0.00580986, 0.424681, 0.364466
636.87047563900000569, -0.0021302, -0.00236878, -0.001605, 0.00566064, 0.424146, 0.364441
636.90379197200002181, -0.0021275, -0.00237211, -0.00160596, 0.00553246, 0.423517, 0.3646
636.93710830600002737, -0.00212487, -0.00237541, -0.00160923, 0.00550453, 0.422968, 0.364099
636.97042461000000912, -0.00212376, -0.00237937, -0.00161308, 0.00551963, 0.422382, 0.363397
637.00374097199994594, -0.00211943, -0.00238268, -0.00161581, 0.00549231, 0.421985, 0.362861
637.0370573059999515, -0.00212312, -0.0023833, -0.00161664, 0.00560986, 0.421927, 0.362294
637.07037363899996762, -0.0021265, -0.00237919, -0.00161638, 0.00567364, 0.422527, 0.36211
637.10383993899995403, -0.00213397, -0.00237963, -0.00161674, 0.00575189, 0.422445, 0.361999
637.13715630599995166, -0.00214543, -0.00237562, -0.00161682, 0.00592949, 0.422983, 0.361479
637.1704726100000471, -0.00215089, -0.00236943, -0.00161714, 0.00608063, 0.423871, 0.360959
637.20378897199998391, -0.00215074, -0.00236814, -0.00161665, 0.00612399, 0.424085, 0.360928
637.23710530599998947, -0.0021529, -0.00236499, -0.00161529, 0.00618104, 0.424549, 0.361022
637.27042170100003204, -0.00215374, -0.00236058, -0.00161431, 0.00623331, 0.425217, 0.361128
637.30373793900002966, -0.00215372, -0.00235489, -0.00161377, 0.00622258, 0.426087, 0.361196
637.33705427200004578, -0.00215422, -0.00235372, -0.001615, 0.00603242, 0.426299, 0.361268
637.37037063900004341, -0.00215303, -0.00235369, -0.00161697, 0.00580678, 0.426397, 0.361246
637.40368697199994585, -0.00215374, -0.00234743, -0.00161715, 0.0056743, 0.427359, 0.361389
637.43700327199996991, -0.00215712, -0.00234136, -0.00161524, 0.00565127, 0.42831, 0.361909
637.47046963900004357, -0.00216041, -0.00233745, -0.00161294, 0.00563583, 0.428876, 0.362496
637.50378594400001475, -0.002158, -0.00233284, -0.00161351, 0.00550035, 0.429544, 0.362521
637.53710227700003088, -0.0021578, -0.00232961, -0.00161444, 0.00541981, 0.430043, 0.362495
637.5704186389999677, -0.00215694, -0.00232776, -0.00161458, 0.00541803, 0.430318, 0.362388
637.60373494400005256, -0.00215699, -0.00232641, -0.00161391, 0.0053304, 0.430517, 0.362502
637.63705138199998146, -0.00215532, -0.00232571, -0.00161215, 0.00538302, 0.430682, 0.363038
637.67036760600001344, -0.00215446, -0.00232108, -0.00161341, 0.00541582, 0.431465, 0.362969
637.70368394399997669, -0.00215404, -0.00231779, -0.0016155, 0.0053033, 0.431949, 0.362352
637.73700030600002719, -0.00215425, -0.00231461, -0.00161713, 0.0052537, 0.43239, 0.361884
637.77031663900004332, -0.00215395, -0.00230998, -0.00161943, 0.00522612, 0.433051, 0.361305
637.8037829720000218, -0.00215283, -0.00230737, -0.00161912, 0.00526808, 0.433443, 0.361362
637.83709930600002735, -0.0021518, -0.0023036, -0.00161814, 0.00535408, 0.433976, 0.361556
637.87041561000000911, -0.00215039, -0.00230075, -0.00161872, 0.00544184, 0.434352, 0.36148
637.90373197199994593, -0.00214726, -0.00229697, -0.00161744, 0.00564269, 0.43485, 0.362024
637.93704827199996998, -0.00214267, -0.00229292, -0.00161792, 0.00581368, 0.43536, 0.362109
637.97036463899996761, -0.00213896, -0.00228936, -0.00161732, 0.00603342, 0.435767, 0.362415
638.00368093400004454, -0.0021365, -0.00228278, -0.00161639, 0.0062807, 0.436656, 0.362765
638.03699724399996285, -0.00212997, -0.00227355, -0.00161747, 0.00643121, 0.437977, 0.362462
638.07031363900000542, -0.00212689, -0.0022669, -0.00161593, 0.00684382, 0.43884, 0.363559
638.10362993900002948, -0.00212791, -0.00226506, -0.00161389, 0.00707865, 0.439098, 0.36442
638.13694630600002711, -0.0021209, -0.00226408, -0.00161722, 0.00715304, 0.439216, 0.364095
638.17041263900000558, -0.0021182, -0.00226246, -0.00162127, 0.00737107, 0.439335, 0.364037
638.20372891499994239, -0.00211189, -0.00226204, -0.00162919, 0.00759774, 0.438981, 0.363588
638.23704527699999289, -0.00211075, -0.00225905, -0.00163054, 0.00771025, 0.439328, 0.363344
638.2703616390000434, -0.00210851, -0.00225572, -0.00163136, 0.00774976, 0.439688, 0.362874
638.30367793899995377, -0.00210791, -0.00225511, -0.00163309, 0.00782587, 0.439682, 0.362756
638.3369942719999699, -0.00210461, -0.00225389, -0.00163784, 0.00796121, 0.439631, 0.362369
638.37031058599995959, -0.00209872, -0.00225524, -0.00164829, 0.00808193, 0.438885, 0.361799
638.40362693899999158, -0.00209311, -0.00225722, -0.00165638, 0.00823254, 0.438305, 0.361725
638.43694327200000771, -0.00209191, -0.00225922, -0.00165985, 0.00822599, 0.437952, 0.361671
638.47025963900000534, -0.00209603, -0.00226192, -0.00166252, 0.00822774, 0.437551, 0.361816
638.50372594400005255, -0.00209704, -0.00226635, -0.00166488, 0.00816987, 0.437069, 0.362131
638.53704227699995499, -0.00209595, -0.00227154, -0.00166962, 0.00815306, 0.436529, 0.362418
638.5703586390000055, -0.00210001, -0.00227253, -0.00166748, 0.00812921, 0.436608, 0.362623
638.60367494399997668, -0.00210655, -0.00227241, -0.00166568, 0.00813265, 0.436705, 0.362775
638.63699130500003776, -0.002115, -0.00227369, -0.0016635, 0.0080508, 0.436688, 0.362978
638.67030760499994813, -0.00212303, -0.00227435, -0.00166071, 0.00796484, 0.436755, 0.363074
638.70362397199994575, -0.00212293, -0.00227496, -0.00166214, 0.00789828, 0.436523, 0.362957
638.73694027700003062, -0.00212512, -0.00227562, -0.00166722, 0.00778989, 0.43582, 0.362474
638.77025663899996744, -0.0021289, -0.00227601, -0.00167098, 0.00763637, 0.435209, 0.362011
638.80357293899999149, -0.00212981, -0.00227403, -0.00167305, 0.0075959, 0.434936, 0.361557
638.83688930499999969, -0.0021303, -0.00227094, -0.00167107, 0.0076324, 0.435221, 0.361404
638.8703556389999676, -0.00214056, -0.00227029, -0.00166813, 0.00783762, 0.435551, 0.361374
638.90367197199998373, -0.00215309, -0.00227074, -0.00166897, 0.00795432, 0.435334, 0.36132
638.93698827699995491, -0.00216171, -0.00227055, -0.00166996, 0.00790043, 0.435171, 0.36125
638.97030463900000541, -0.00215914, -0.00226962, -0.00167014, 0.00769631, 0.435203, 0.361056
639.00362097200002154, -0.00215881, -0.002269, -0.00167046, 0.00764158, 0.435196, 0.361031
639.03693730500003767, -0.0021565, -0.00226644, -0.00167054, 0.00750236, 0.435153, 0.360571
639.07025363900004322, -0.0021513, -0.00226569, -0.00167081, 0.00738433, 0.435267, 0.360514
639.10357280100004118, -0.00215609, -0.0022635, -0.00167104, 0.0072024, 0.434992, 0.360228
639.13688630499996179, -0.00216526, -0.0022622, -0.00167141, 0.00705349, 0.434607, 0.360104
639.17020263899996735, -0.00216383, -0.00226174, -0.00167261, 0.00697218, 0.434475, 0.35982
639.20366893899995375, -0.00216961, -0.00226038, -0.0016729, 0.00684326, 0.434076, 0.359476
639.23698527700003069, -0.00217258, -0.00225947, -0.00167247, 0.00675087, 0.433853, 0.35928
639.27030163899996751, -0.00217442, -0.0022597, -0.00167124, 0.00673825, 0.434035, 0.359459
639.30361794299994926, -0.00216772, -0.00226021, -0.0016698, 0.0067237, 0.434604, 0.359474
639.3369342720000077, -0.00215504, -0.00225894, -0.00166866, 0.00671502, 0.435076, 0.359187
639.37025063900000532, -0.00214593, -0.00225911, -0.00166813, 0.00668039, 0.435539, 0.359066
639.40356697200002145, -0.00214084, -0.00225889, -0.00166826, 0.00671138, 0.435862, 0.358977
639.43688327200004551, -0.00213193, -0.00225816, -0.00167228, 0.00689486, 0.436592, 0.358957
639.47019957700001669, -0.00212045, -0.0022581, -0.00167553, 0.00697027, 0.437205, 0.358793
639.50351593899995351, -0.00211547, -0.00225933, -0.00167957, 0.00701093, 0.43745, 0.358879
639.53698227699999279, -0.00210642, -0.00225717, -0.0016832, 0.00712773, 0.438053, 0.358526
639.57029863900004329, -0.00209986, -0.00225763, -0.00168305, 0.00714553, 0.43857, 0.358501
639.60361497199994574, -0.00209293, -0.00225637, -0.00168384, 0.00718131, 0.438839, 0.358257
639.63693130499996187, -0.00208832, -0.00225625, -0.00168554, 0.00723151, 0.439162, 0.358196
639.67024763899996742, -0.00208179, -0.00225569, -0.00169062, 0.00734617, 0.439715, 0.358091
639.70356397199998355, -0.00208876, -0.00225903, -0.001688, 0.0072818, 0.439545, 0.358571
639.73688027699995473, -0.00208427, -0.00225993, -0.00168715, 0.00729245, 0.439921, 0.35853
639.77019660500002374, -0.00207667, -0.00226056, -0.00168446, 0.00729753, 0.440282, 0.358448
639.80351294299998699, -0.00207277, -0.00226129, -0.00168682, 0.00735523, 0.440596, 0.358405
639.83682930500003749, -0.00206609, -0.00225936, -0.00169353, 0.0074666, 0.440963, 0.358023
639.87014563900004305, -0.00206681, -0.00226122, -0.00169374, 0.00748369, 0.441109, 0.358118
639.90361197200002152, -0.00205994, -0.0022642, -0.00169612, 0.0075827, 0.441697, 0.358076
639.93692830500003765, -0.00204698, -0.00226178, -0.00170211, 0.00770701, 0.44215, 0.357589
639.97024460499994802, -0.00204453, -0.00226023, -0.00170446, 0.00774352, 0.442193, 0.357404
640.00356097199994565, -0.00206148, -0.00226172, -0.0017143, 0.00774419, 0.441886, 0.357511
640.03687730499996178, -0.00207082, -0.00225934, -0.00172972, 0.00784869, 0.441812, 0.357119
640.07019360499998584, -0.00208108, -0.00225418, -0.00175073, 0.00799717, 0.441693, 0.356426
640.10350993899999139, -0.0020888, -0.00225177, -0.00176706, 0.00813387, 0.441709, 0.355894
640.13682627699995464, -0.00210529, -0.0022521, -0.00176999, 0.00805949, 0.441313, 0.356067
640.17014260999997077, -0.00212133, -0.00225373, -0.00177769, 0.00805787, 0.441095, 0.35607
640.20345897200002128, -0.00212762, -0.0022544, -0.00178179, 0.00806726, 0.441026, 0.356036
640.2369252769999548, -0.00212891, -0.00225579, -0.00179334, 0.0082303, 0.441266, 0.355597
640.27024160999997093, -0.00213739, -0.00225317, -0.00180642, 0.00833854, 0.441255, 0.355092
640.30355797200002144, -0.00215551, -0.00225289, -0.00181073, 0.00824246, 0.440868, 0.355215
640.33687430500003757, -0.00217404, -0.00225451, -0.00181606, 0.00817615, 0.440583, 0.355313
640.37019060499994794, -0.00218362, -0.00225455, -0.00182261, 0.0082023, 0.4405, 0.355152
640.40350697199994556, -0.00219541, -0.00225223, -0.00182878, 0.0081928, 0.440332, 0.354984
640.43682325299994318, -0.00220823, -0.0022542, -0.00183209, 0.00812495, 0.440102, 0.355055
640.47013961000004656, -0.00222135, -0.00225238, -0.00184231, 0.00817199, 0.439969, 0.354742
640.5034559389999913, -0.00224685, -0.00225083, -0.00185175, 0.00812262, 0.439657, 0.354597
640.53677359999994678, -0.00226276, -0.00226197, -0.00185094, 0.00796551, 0.439357, 0.355022
640.57008872899996277, -0.00227157, -0.00226883, -0.00184875, 0.00786002, 0.439215, 0.355328
640.60355494299994916, -0.00228715, -0.00227647, -0.00184896, 0.00775119, 0.439007, 0.355592
640.63687130499999967, -0.00229648, -0.00227857, -0.00184699, 0.0076419, 0.438857, 0.35574
640.67018760999997085, -0.00231867, -0.00227895, -0.00185277, 0.00751931, 0.438552, 0.355753
640.70350397200002135, -0.0023395, -0.00227841, -0.00185828, 0.00752876, 0.438403, 0.355631
640.73682027200004541, -0.00235248, -0.00227779, -0.00186114, 0.00759507, 0.438371, 0.355493
640.77013663800005361, -0.00236573, -0.00227798, -0.00186555, 0.00758027, 0.43825, 0.355438
640.80345297199994548, -0.00236649, -0.00227789, -0.00186643, 0.00753366, 0.438219, 0.355452
640.83676930499996161, -0.00236619, -0.00227719, -0.00186628, 0.00751269, 0.438214, 0.355454
640.87008560499998566, -0.00236609, -0.00227735, -0.00186635, 0.00745331, 0.438191, 0.355483
640.90340194299994891, -0.00236871, -0.00227367, -0.00186825, 0.00753044, 0.438188, 0.355362
640.9368682770000305, -0.00237031, -0.00227671, -0.00186866, 0.00756247, 0.438173, 0.355391
640.97018463799997789, -0.0023778, -0.00227761, -0.00187287, 0.0075212, 0.438079, 0.355356
641.00350097199998345, -0.00235742, -0.00228205, -0.00186419, 0.00731652, 0.438206, 0.355592
641.03681727200000751, -0.00235584, -0.00229934, -0.00186526, 0.00698167, 0.438057, 0.355922
641.07013360999997076, -0.00235575, -0.00229815, -0.00186739, 0.00690884, 0.438026, 0.355896
641.10344997200002126, -0.00233931, -0.00229923, -0.00186339, 0.00684023, 0.438127, 0.355948
641.13676627699999244, -0.00231795, -0.00230143, -0.00185484, 0.00678473, 0.438298, 0.356071
641.1700825770000165, -0.00230554, -0.00230157, -0.00184907, 0.00678391, 0.438417, 0.356119
641.20339893799996389, -0.0022975, -0.00229284, -0.00184601, 0.0066748, 0.438505, 0.356053
641.23671530499996152, -0.00228902, -0.00228782, -0.00184321, 0.00651025, 0.438569, 0.356056
641.27003158100001201, -0.0022736, -0.00228194, -0.00183786, 0.00645708, 0.438693, 0.356018
641.30349791000003279, -0.00226894, -0.00227383, -0.00183478, 0.00636302, 0.438749, 0.355982
641.33681427600004099, -0.00227225, -0.00226802, -0.00183507, 0.00630209, 0.438736, 0.355968
641.37013064300003862, -0.00228264, -0.00226396, -0.00183774, 0.00622919, 0.438655, 0.35598
641.40344694299994899, -0.00227884, -0.00225955, -0.00183254, 0.00611575, 0.438698, 0.356035
641.43676330499999949, -0.00226994, -0.00226478, -0.00183137, 0.00614237, 0.438741, 0.356042
641.47008024800004478, -0.00225728, -0.00226782, -0.00182876, 0.00620453, 0.43884, 0.355982
641.5033959429999868, -0.00223712, -0.00226577, -0.00182108, 0.00625187, 0.439024, 0.355913
641.53671227600000293, -0.00221808, -0.00226443, -0.0018135, 0.00625772, 0.439171, 0.355892
641.57002863800005343, -0.00221952, -0.00225962, -0.00181089, 0.00620947, 0.439153, 0.35596
641.6033449719999453, -0.00222927, -0.00225253, -0.00180815, 0.00612582, 0.439071, 0.356122
641.63681130500003746, -0.00223882, -0.00225194, -0.00180409, 0.00601352, 0.438955, 0.356411
641.67012757600002715, -0.00223626, -0.00226161, -0.00180505, 0.00598955, 0.438908, 0.35649
641.70344397199994546, -0.00221023, -0.00225035, -0.00179879, 0.00612367, 0.439263, 0.35616
641.7367602760000409, -0.00219915, -0.00224882, -0.00179893, 0.0061877, 0.439404, 0.355986
641.77007661000004646, -0.00218954, -0.0022557, -0.00180152, 0.00622875, 0.439467, 0.355846
641.80339297199998327, -0.00216601, -0.00225939, -0.00180073, 0.00632478, 0.439706, 0.355594
641.8367093049999994, -0.00216229, -0.00226075, -0.00180385, 0.00636406, 0.439756, 0.35544
641.8700255810000499, -0.00218248, -0.00225302, -0.00180573, 0.00628762, 0.43956, 0.355624
641.90334194299998671, -0.00218755, -0.00223146, -0.00179793, 0.0062304, 0.439583, 0.355928
641.93665827600000284, -0.00218824, -0.00223564, -0.00180551, 0.00625355, 0.439547, 0.355709
641.9699746100000084, -0.00218127, -0.00225288, -0.00182492, 0.00635201, 0.439535, 0.355014
642.00344097200002125, -0.00216879, -0.00225319, -0.00183362, 0.00646151, 0.439708, 0.354524
642.036757276000003, -0.00218111, -0.00226382, -0.00185508, 0.00650835, 0.439544, 0.35383
642.07007361000000856, -0.00218152, -0.00226875, -0.00187005, 0.00658442, 0.439546, 0.353238
642.10338997199994537, -0.00216781, -0.00226601, -0.00186702, 0.00666447, 0.439746, 0.353145
642.13670627600004082, -0.00217013, -0.00227181, -0.00186753, 0.00665281, 0.439636, 0.353149
642.17002266700001201, -0.00219013, -0.002274, -0.00187606, 0.00660356, 0.43946, 0.352979
642.20333897199998319, -0.0021994, -0.00227969, -0.00188267, 0.0065972, 0.439316, 0.35278
642.23665527599996494, -0.00221562, -0.00227104, -0.00189601, 0.00664125, 0.439436, 0.352265
642.26997166700004982, -0.00222532, -0.00226453, -0.0018958, 0.00661171, 0.439491, 0.352307
642.3032879380000395, -0.0022398, -0.00225993, -0.00190708, 0.00664931, 0.43955, 0.351863
642.33675430499999948, -0.00225271, -0.00226214, -0.00191605, 0.006648, 0.439461, 0.351572
642.37007063800001561, -0.00226429, -0.00225907, -0.00192429, 0.00668806, 0.439507, 0.351235
642.40338694299998679, -0.00227706, -0.00225651, -0.00193445, 0.00673901, 0.439545, 0.350827
642.43670327200004522, -0.00228375, -0.00225743, -0.00193838, 0.00672921, 0.439492, 0.350717
642.47001963800005342, -0.00228503, -0.00225571, -0.00194016, 0.00675373, 0.439539, 0.350627
642.50333597199994529, -0.00228578, -0.00225787, -0.00194191, 0.00678753, 0.439514, 0.350535
642.53665230499996142, -0.00232226, -0.00224286, -0.00196068, 0.00682418, 0.439706, 0.34989
642.56996860499998547, -0.00235775, -0.0022218, -0.00197597, 0.00688279, 0.440045, 0.349311
642.6032849719999831, -0.00236743, -0.00220939, -0.00197981, 0.00695459, 0.440311, 0.349083
642.63660124800003359, -0.00236166, -0.00221878, -0.00197618, 0.00690554, 0.440117, 0.349263
642.67006757599995126, -0.00236336, -0.00222227, -0.00197661, 0.00687345, 0.440025, 0.349294
642.70338397199998326, -0.00236531, -0.00223207, -0.00197774, 0.0067841, 0.439778, 0.349382
642.73670030499999939, -0.0023904, -0.00222719, -0.00198349, 0.00670138, 0.439748, 0.349309
642.77001664800002345, -0.00238695, -0.0022304, -0.0019825, 0.00668726, 0.439693, 0.349351
642.80333297100003165, -0.00239673, -0.00222512, -0.0019848, 0.00668705, 0.439758, 0.34929
642.8366493050000372, -0.00242583, -0.00221292, -0.0019903, 0.00665893, 0.439871, 0.34918
642.86996566699997402, -0.00242803, -0.00221074, -0.00199011, 0.00666418, 0.439904, 0.349176
642.90328197099995577, -0.00246356, -0.00218574, -0.00199241, 0.00667569, 0.440231, 0.349074
642.93659831000002214, -0.00247561, -0.00217823, -0.00199028, 0.00659697, 0.440283, 0.349168
642.96991460499998539, -0.00247627, -0.00218034, -0.0019869, 0.00650566, 0.4402, 0.349306
643.00323093800000152, -0.00247799, -0.00217859, -0.00198557, 0.00648503, 0.440207, 0.349344
643.03669730499996149, -0.00248096, -0.00217613, -0.00198369, 0.00644165, 0.440209, 0.349412
643.07001386199999615, -0.00246515, -0.00218304, -0.00197715, 0.00632559, 0.440091, 0.349583
643.10332993800000168, -0.00244352, -0.00219603, -0.00197487, 0.0062907, 0.43996, 0.34961
643.13664627599996493, -0.00243745, -0.0022035, -0.00197346, 0.00628792, 0.439889, 0.349598
643.16996260500002336, -0.00241795, -0.00221129, -0.00196731, 0.00626709, 0.439841, 0.349619
643.20327894299998661, -0.00237724, -0.00223371, -0.00196318, 0.00627238, 0.439728, 0.349487
643.23659530500003711, -0.00234505, -0.00224923, -0.00195436, 0.00624033, 0.439634, 0.349451
643.26991160499994749, -0.00229735, -0.00226566, -0.001934, 0.00611941, 0.43948, 0.349533
643.30322797099995569, -0.00227845, -0.00225607, -0.00191499, 0.0059807, 0.439419, 0.349793
643.33654427600004055, -0.00226844, -0.00225394, -0.00190228, 0.00589154, 0.439331, 0.349952
643.37001060499994765, -0.00225312, -0.00225881, -0.00189726, 0.00586581, 0.439306, 0.349921
643.40332693799996377, -0.00224507, -0.00226346, -0.00189422, 0.00582025, 0.43923, 0.349976
643.4366433049999614, -0.00227329, -0.00225585, -0.00189534, 0.00580752, 0.439156, 0.350201
643.46995960899994316, -0.00226991, -0.00225859, -0.00190615, 0.00590217, 0.439317, 0.349884
643.50327597099999366, -0.00226504, -0.00226222, -0.00190874, 0.00592582, 0.439383, 0.349761
643.53659230499999921, -0.00227051, -0.00226257, -0.00190883, 0.00591794, 0.439364, 0.349805
643.56990860899998097, -0.00227357, -0.0022652, -0.0019161, 0.00597023, 0.439497, 0.349617
643.6032249380000394, -0.00230845, -0.00225519, -0.00192454, 0.00605477, 0.439577, 0.349572
643.63654130500003703, -0.00230656, -0.00225339, -0.00192711, 0.00609421, 0.43967, 0.349438
643.66985763800005316, -0.00230392, -0.00224966, -0.00193167, 0.00616813, 0.439832, 0.349189
643.7031739709999556, -0.00231672, -0.00224338, -0.00193418, 0.00620488, 0.439862, 0.349157
643.73664027600000281, -0.00231529, -0.00224323, -0.00193304, 0.00619526, 0.439841, 0.349187
643.76995660499994756, -0.00234241, -0.00223118, -0.00193541, 0.00627616, 0.439895, 0.349115
643.80327297099995576, -0.0023819, -0.00221023, -0.00194699, 0.00650295, 0.44023, 0.348671
643.83658927600004063, -0.00238077, -0.00220481, -0.00194827, 0.00655764, 0.440343, 0.348515
643.86990563799997744, -0.00237264, -0.00220092, -0.00195186, 0.00663353, 0.440549, 0.348251
643.90322194299994862, -0.00241635, -0.0021924, -0.00195016, 0.00663169, 0.44033, 0.348545
643.93653830499999913, -0.00255874, -0.00219133, -0.00193633, 0.00631164, 0.438955, 0.350338
643.96985463800001526, -0.00257621, -0.00218778, -0.00193508, 0.00630486, 0.438837, 0.350474
644.00317093800003931, -0.00258177, -0.0021879, -0.00193294, 0.0062753, 0.438709, 0.350587
644.03648730500003694, -0.00259678, -0.00217834, -0.00193595, 0.00640374, 0.43889, 0.35043
644.06995360899998104, -0.00260147, -0.00217359, -0.00193977, 0.00650833, 0.439124, 0.350278
644.10326993800003947, -0.00259226, -0.00216465, -0.00194135, 0.00664218, 0.439438, 0.349912
644.13658624300001065, -0.00259571, -0.00216346, -0.00194449, 0.00670017, 0.439641, 0.349761
644.16990260499994747, -0.00258541, -0.00216173, -0.00194643, 0.00676923, 0.439888, 0.349461
644.20321897099995567, -0.00262662, -0.00217227, -0.00194563, 0.00656746, 0.439311, 0.350345
644.23653530499996123, -0.00262732, -0.0021726, -0.00194489, 0.00654966, 0.439245, 0.35037
644.26985160899994298, -0.00262011, -0.00217737, -0.00194585, 0.00649487, 0.439262, 0.350283
644.30316793800000141, -0.00262191, -0.00217706, -0.00194353, 0.00647637, 0.439134, 0.350264
644.33648430499999904, -0.00260882, -0.00218114, -0.00194609, 0.00643594, 0.439241, 0.350122
644.3698006089999808, -0.00260434, -0.00218398, -0.00194581, 0.00636668, 0.439171, 0.350105
644.4031169710000313, -0.00259359, -0.00218871, -0.00194842, 0.00627367, 0.43922, 0.350079
644.43658327599996483, -0.00258742, -0.00219137, -0.00194928, 0.00619947, 0.43918, 0.350046
644.46989963800001533, -0.00258388, -0.00219235, -0.00194937, 0.00618385, 0.439164, 0.349963
644.50321597100003146, -0.00258425, -0.00219063, -0.00195119, 0.00626566, 0.439417, 0.349978
644.53653230500003701, -0.0025912, -0.00218928, -0.00194995, 0.00630232, 0.439413, 0.350082
644.56984863800005314, -0.00259411, -0.00219196, -0.00194501, 0.00620911, 0.438892, 0.349978
644.60316497099995559, -0.00260764, -0.00219228, -0.00193962, 0.00618776, 0.438481, 0.350148
644.63648130499996114, -0.00259435, -0.00219541, -0.00194358, 0.00612444, 0.438475, 0.349798
644.66979763799997727, -0.002576, -0.00219739, -0.00195151, 0.0060674, 0.438875, 0.349389
644.70311397600005421, -0.0025377, -0.00220778, -0.00196042, 0.00582692, 0.438784, 0.34846
644.73643030499999895, -0.00250994, -0.00220766, -0.00197217, 0.00581871, 0.439556, 0.34789
644.76989660899994306, -0.00247421, -0.00219655, -0.00199481, 0.00596797, 0.44157, 0.347164
644.80321293800000149, -0.0024749, -0.00219242, -0.00199831, 0.00601525, 0.442076, 0.347199
644.83652930499999911, -0.00246797, -0.00218678, -0.00200472, 0.0060837, 0.442746, 0.34713
644.86984560899998087, -0.00244138, -0.00218403, -0.00201607, 0.0060651, 0.443502, 0.346581
644.9031619380000393, -0.00241705, -0.00218236, -0.00202551, 0.00608394, 0.443978, 0.345888
644.93647830500003693, -0.00240098, -0.00218167, -0.00203155, 0.00608045, 0.444275, 0.345465
644.96979464300000018, -0.00238069, -0.00218325, -0.00203765, 0.00601002, 0.444499, 0.344987
645.00311093799996343, -0.00237071, -0.00218438, -0.0020409, 0.00596911, 0.444594, 0.344704
645.03642727600004037, -0.00237486, -0.00219045, -0.00203698, 0.00582952, 0.444126, 0.344929
645.06974362799996925, -0.00233949, -0.00220047, -0.00204598, 0.00553816, 0.444082, 0.34406
645.10305997600005412, -0.0023058, -0.002206, -0.00205514, 0.005414, 0.444098, 0.343065
645.13652627600004053, -0.0022992, -0.00220775, -0.00205646, 0.00536017, 0.444111, 0.342927
645.16984260899994297, -0.00229907, -0.00220816, -0.00205659, 0.0053397, 0.444156, 0.342952
645.20315894299994852, -0.00229234, -0.00221149, -0.00205654, 0.0052653, 0.443984, 0.342841
645.23647527100001753, -0.00229808, -0.00221465, -0.00205338, 0.00518363, 0.443774, 0.34309
645.26979160899998078, -0.00228185, -0.00222005, -0.00205339, 0.00503269, 0.443687, 0.342748
645.30310797100003128, -0.00227833, -0.00222552, -0.00205088, 0.0048963, 0.443424, 0.342827
645.33642427099994165, -0.00227636, -0.00222774, -0.00204923, 0.00483096, 0.443373, 0.342888
645.36974060399995778, -0.00229682, -0.00223552, -0.00204331, 0.00471795, 0.442488, 0.343521
645.40305693799996334, -0.00230194, -0.00223955, -0.00204078, 0.0046431, 0.442054, 0.343751
645.43637337099994511, -0.00231141, -0.00224366, -0.00203744, 0.00456886, 0.441708, 0.344138
645.46983963800005313, -0.00232466, -0.00225161, -0.00203263, 0.00444574, 0.440665, 0.344493
645.5031559379999635, -0.00232868, -0.00225123, -0.00203282, 0.00446058, 0.440675, 0.344558
645.53647227600004044, -0.00233383, -0.00225117, -0.00203364, 0.00447579, 0.440578, 0.344605
645.56978863799997725, -0.00234075, -0.00225192, -0.00203364, 0.0044644, 0.440491, 0.344734
645.60310497099999338, -0.00235699, -0.00225103, -0.00203601, 0.00452294, 0.440422, 0.3449
645.63642127100001744, -0.00236615, -0.00225154, -0.00203706, 0.00453465, 0.440224, 0.344982
645.66973763800001507, -0.0023993, -0.00225174, -0.00204254, 0.00461177, 0.439766, 0.345246
645.7030539710000312, -0.00242785, -0.00225131, -0.00204817, 0.00468762, 0.439469, 0.345405
645.73637030400004733, -0.00243075, -0.00224979, -0.00204971, 0.00473813, 0.439615, 0.345421
645.76968663800005288, -0.00244678, -0.00224695, -0.00205423, 0.00485819, 0.439908, 0.345524
645.80300293300001613, -0.00245135, -0.00224603, -0.00205673, 0.00489709, 0.439895, 0.345456
645.83646927600000254, -0.00246338, -0.00224365, -0.00206315, 0.00500948, 0.439996, 0.345282
645.86978563800005304, -0.00246631, -0.00224382, -0.0020633, 0.00501018, 0.439955, 0.345275
645.90310197099995548, -0.00248415, -0.00224561, -0.00206463, 0.00497673, 0.439385, 0.345362
645.93641830399997161, -0.00249829, -0.00224648, -0.00206681, 0.00497379, 0.438978, 0.345386
645.96973460899994279, -0.00251871, -0.00224798, -0.00206953, 0.00496875, 0.438507, 0.345471
646.0030509709999933, -0.00255184, -0.00224711, -0.00207901, 0.00504994, 0.437758, 0.345212
646.03636099000004833, -0.00255804, -0.00224751, -0.00207967, 0.0050442, 0.437563, 0.345223
646.06966890100000001, -0.00256566, -0.00224778, -0.00208093, 0.00504838, 0.437355, 0.345213
646.10297740399994382, -0.0025714, -0.0022478, -0.00208013, 0.00502197, 0.437123, 0.34521
646.13643588200000067, -0.00256915, -0.00224762, -0.00207906, 0.00500827, 0.437114, 0.345199
646.16974447699999473, -0.00256953, -0.00224832, -0.00207707, 0.00499878, 0.437256, 0.345351
646.20305298100004165, -0.00259259, -0.00224869, -0.00207935, 0.0050079, 0.436801, 0.345374
646.23636148900004628, -0.00259328, -0.00224808, -0.00208034, 0.00502854, 0.436671, 0.345221
646.26967005500000596, -0.00259171, -0.00224711, -0.00208129, 0.00503241, 0.436353, 0.344937
646.30297862600002645, -0.00261573, -0.00224722, -0.00208015, 0.00500244, 0.435685, 0.344994
646.33628716299995176, -0.00264228, -0.00224563, -0.00208007, 0.00500185, 0.434442, 0.344621
646.36959569999999076, -0.00264488, -0.00224481, -0.00207931, 0.00494963, 0.433504, 0.344161
646.40290423800001918, -0.00264805, -0.00224476, -0.00207896, 0.0049356, 0.433216, 0.344055
646.43621277499994449, -0.00265887, -0.00224635, -0.00207399, 0.00484418, 0.432982, 0.344399
646.46952131199998348, -0.00265908, -0.00224747, -0.00207092, 0.00476053, 0.432832, 0.344487
646.50297981500000333, -0.00266071, -0.00224803, -0.00206943, 0.00472483, 0.432719, 0.344519
646.53628835200004232, -0.00265963, -0.00224983, -0.00206561, 0.00461885, 0.432129, 0.344366
646.56959688899996763, -0.0026613, -0.00225113, -0.00206357, 0.00458855, 0.43132, 0.344102
646.60290542699999605, -0.00266799, -0.00225143, -0.00206287, 0.00462382, 0.430698, 0.34395
646.63621393500000067, -0.00267527, -0.00225174, -0.00206136, 0.00461919, 0.430444, 0.34401
646.66952246799996828, -0.00268211, -0.00225183, -0.00205971, 0.00457715, 0.430514, 0.344242
646.70283103799999935, -0.00267867, -0.00225296, -0.0020591, 0.00450769, 0.430459, 0.34417
646.73613954200004628, -0.00267799, -0.00225521, -0.00205705, 0.00442072, 0.430377, 0.344176
646.76944807999996101, -0.00267868, -0.00225452, -0.00205718, 0.00439035, 0.430629, 0.344237
646.80275662199994713, -0.00268455, -0.00225188, -0.0020577, 0.00438151, 0.43109, 0.344364
646.83621512399997755, -0.00269003, -0.0022484, -0.0020593, 0.00436932, 0.431658, 0.34449
646.86952369000005092, -0.00268078, -0.00224751, -0.00206197, 0.00435519, 0.431886, 0.344261
646.90283219399998416, -0.00268665, -0.0022445, -0.00206338, 0.00434999, 0.432306, 0.344356
646.93614076400001522, -0.00268598, -0.00223809, -0.00206755, 0.00439351, 0.433058, 0.344347
646.96944926799994846, -0.00267331, -0.00223443, -0.00207384, 0.00438286, 0.433669, 0.343989
647.00275783899996895, -0.00266603, -0.00223445, -0.00207559, 0.00433412, 0.433859, 0.343838
647.03607291599996643, -0.00265387, -0.00222956, -0.00208197, 0.00437115, 0.434472, 0.343484
647.06938960900004076, -0.00265392, -0.00222921, -0.00208175, 0.00438074, 0.434477, 0.343539
647.10270597099997758, -0.00264959, -0.00223111, -0.00208124, 0.00433273, 0.434403, 0.343531
647.13602240399995935, -0.00264376, -0.00222646, -0.00208576, 0.00438316, 0.434858, 0.343342
647.16933860400001777, -0.00264498, -0.00221936, -0.00209142, 0.00448522, 0.435432, 0.343185
647.20280493799998567, -0.00265409, -0.00221716, -0.00209086, 0.00452658, 0.43557, 0.343355
647.23612130399999387, -0.00265014, -0.00221281, -0.00209426, 0.00454477, 0.43607, 0.343175
647.26943760899996505, -0.00264564, -0.00220868, -0.00209947, 0.00461178, 0.436372, 0.342901
647.30275397100001555, -0.00264596, -0.00220361, -0.00210383, 0.00471034, 0.436747, 0.342722
647.33607030400003168, -0.00263699, -0.00220211, -0.00210517, 0.00470226, 0.437092, 0.342553
647.36938660900000286, -0.00264685, -0.00220034, -0.0021047, 0.00474992, 0.437143, 0.342687
647.40270290900002692, -0.00266475, -0.00219945, -0.00210455, 0.00482742, 0.436948, 0.342821
647.43601937599999019, -0.00268539, -0.00219279, -0.00210754, 0.00499093, 0.437317, 0.342946
647.46933563699997194, -0.00267296, -0.00218249, -0.00212108, 0.00518353, 0.438051, 0.342069
647.50265448499999366, -0.00266951, -0.00217752, -0.00212418, 0.005249, 0.438586, 0.341856
647.53596830399999362, -0.00266561, -0.00217746, -0.00212278, 0.00521761, 0.438788, 0.341858
647.56943457600004876, -0.00267023, -0.0021747, -0.00212582, 0.00529485, 0.438906, 0.34174
647.60275093699999616, -0.00267669, -0.00217162, -0.00213106, 0.0053886, 0.438945, 0.341513
647.63606727599994883, -0.0026967, -0.00216984, -0.00213158, 0.00547461, 0.438904, 0.341687
647.66938360899996496, -0.0027161, -0.00216922, -0.00213249, 0.00554798, 0.438708, 0.341785
647.70269994199998109, -0.00274603, -0.00216828, -0.0021318, 0.00564673, 0.43856, 0.342102
647.73601627599998665, -0.00277213, -0.00216926, -0.00213338, 0.00571748, 0.438078, 0.342139
647.76933263700004773, -0.00280147, -0.00217042, -0.00213068, 0.00576552, 0.437766, 0.342503
647.80264894200001891, -0.00282022, -0.00216794, -0.00213571, 0.00591044, 0.437641, 0.342258
647.83596530399995572, -0.00284073, -0.00216978, -0.00213688, 0.00593911, 0.43716, 0.342281
647.86928163699997185, -0.00284934, -0.00217211, -0.00213537, 0.00589565, 0.436869, 0.342426
647.90274794200001907, -0.0028633, -0.0021752, -0.00212902, 0.00581607, 0.436751, 0.343011
647.93606430399995588, -0.0028633, -0.0021752, -0.00212902, 0.00581607, 0.436751, 0.343011
647.96938063699997201, -0.00286637, -0.0021767, -0.00212845, 0.00576899, 0.436593, 0.343076
648.00269693699999607, -0.00287363, -0.0021806, -0.00212576, 0.00563338, 0.436276, 0.343362
648.0360133039999937, -0.0028736, -0.00218234, -0.00212317, 0.00553216, 0.436236, 0.343463
648.06932960400001775, -0.00288163, -0.00218385, -0.00212119, 0.00547937, 0.436151, 0.3437
648.10264592299995456, -0.00287547, -0.00218452, -0.00212151, 0.00542531, 0.436127, 0.34364
648.13596224200000506, -0.00287343, -0.00218608, -0.00212036, 0.00532853, 0.436122, 0.343755
648.16927863700004764, -0.00286572, -0.00218607, -0.00211795, 0.00524879, 0.436434, 0.343948
648.20259497100005319, -0.00286088, -0.00218682, -0.00211789, 0.00518835, 0.436433, 0.343928
648.23591127099996356, -0.00284495, -0.00218934, -0.00211877, 0.00499636, 0.436307, 0.343752
648.26937760399994204, -0.00282207, -0.00218841, -0.00211496, 0.00486711, 0.437147, 0.344128
648.30269393699995817, -0.00277807, -0.00218423, -0.0021133, 0.00482032, 0.438368, 0.344148
648.3360103039999558, -0.00276704, -0.00218473, -0.00211253, 0.00474015, 0.438557, 0.344123
648.36932663699997192, -0.00277282, -0.002187, -0.00211139, 0.00466915, 0.438343, 0.344258
648.4026429419999431, -0.00276763, -0.00218931, -0.00211107, 0.00454962, 0.438214, 0.344263
648.43595930399999361, -0.00276917, -0.00219054, -0.00210993, 0.00449866, 0.438242, 0.344417
648.46927560400001767, -0.00275641, -0.00219094, -0.00211035, 0.004428, 0.438234, 0.344243
648.50259193700003379, -0.00274243, -0.00219007, -0.00210901, 0.00438346, 0.438603, 0.344216
648.53590830400003142, -0.00272278, -0.00218673, -0.0021102, 0.00442276, 0.439099, 0.343955
648.56922463700004755, -0.00268436, -0.00218387, -0.00211154, 0.00435929, 0.43965, 0.343471
648.60269093700003395, -0.00267952, -0.00218227, -0.00211218, 0.00440431, 0.439908, 0.343422
648.63600730400003158, -0.00267117, -0.00218074, -0.002113, 0.00442946, 0.440113, 0.343295
648.66932364199999483, -0.0026436, -0.0021773, -0.0021162, 0.00448112, 0.440566, 0.342883
648.70263997100005327, -0.00262662, -0.00217536, -0.00211728, 0.00450415, 0.440877, 0.342668
648.73595630399995571, -0.00260694, -0.00217394, -0.00211795, 0.00447775, 0.440996, 0.342402
648.76927260900004057, -0.00259239, -0.00217208, -0.00211927, 0.00450757, 0.441257, 0.342223
648.80258897099997739, -0.00258304, -0.0021693, -0.00212374, 0.00459733, 0.441571, 0.341931
648.83590527100000145, -0.00259957, -0.00217128, -0.00212339, 0.00457778, 0.441311, 0.342132
648.86922160400001758, -0.00259167, -0.00216964, -0.00212671, 0.0046572, 0.441623, 0.341927
648.9025379710000152, -0.00259167, -0.00216774, -0.00213369, 0.00476295, 0.441791, 0.341605
648.93585565599994425, -0.00260008, -0.00216859, -0.00213367, 0.00475152, 0.441673, 0.341675
648.96932060899996486, -0.00262099, -0.00217058, -0.00213529, 0.00476883, 0.441538, 0.34179
649.00263694199998099, -0.00265178, -0.00217394, -0.00213885, 0.0048302, 0.441486, 0.341948
649.03595330400003149, -0.00268121, -0.00217732, -0.00214489, 0.00492743, 0.441513, 0.341965
649.06926960399994186, -0.00268319, -0.00217915, -0.00214578, 0.00498197, 0.441693, 0.342001
649.10258597100005318, -0.00268602, -0.00217921, -0.00214875, 0.00500959, 0.441696, 0.341867
649.13590230399995562, -0.0027128, -0.00217821, -0.00216219, 0.00509298, 0.441505, 0.34137
649.16921860399997968, -0.00272108, -0.00217602, -0.00217033, 0.00515055, 0.441432, 0.340968
649.20253492300003018, -0.00273288, -0.00217689, -0.00217664, 0.00522413, 0.441433, 0.34073
649.23585130399999343, -0.00276178, -0.00217893, -0.00218533, 0.00526234, 0.441234, 0.340521
649.26916760400001749, -0.00279877, -0.00218241, -0.00219354, 0.00527789, 0.44096, 0.340411
649.30263397099997746, -0.00281636, -0.00218271, -0.00219932, 0.0052818, 0.440788, 0.340246
649.33595030399999359, -0.00282541, -0.00218402, -0.00220136, 0.00526266, 0.44067, 0.340249
649.36926660899996477, -0.00282782, -0.0021862, -0.00220238, 0.0053001, 0.440741, 0.340264
649.40258293700003378, -0.00282317, -0.00218797, -0.00220038, 0.00530752, 0.440813, 0.340379
649.43589930400003141, -0.00284047, -0.0021948, -0.00219833, 0.00520647, 0.440637, 0.340783
649.46921557500002109, -0.00284325, -0.00219934, -0.00219561, 0.00516274, 0.440618, 0.34107
649.50253193699995791, -0.00285546, -0.00220326, -0.00219706, 0.00519034, 0.440578, 0.341123
649.53584830399995553, -0.0028798, -0.00220294, -0.00220171, 0.00511758, 0.440323, 0.341039
649.56916484700002457, -0.00286706, -0.00220298, -0.00219767, 0.00514309, 0.440462, 0.341131
649.60248096999998779, -0.00285892, -0.00220154, -0.00219425, 0.00510712, 0.440514, 0.341208
649.63594727500003501, -0.00285183, -0.00220619, -0.00218769, 0.00504658, 0.440584, 0.341535
649.66926359900003263, -0.00285078, -0.00220384, -0.00218841, 0.00496158, 0.440479, 0.341482
649.70257996999998795, -0.00284708, -0.00220058, -0.00218669, 0.00488215, 0.440448, 0.341457
649.73589630399999351, -0.0028486, -0.0022066, -0.00218279, 0.00477529, 0.440403, 0.341741
649.76921260899996469, -0.0028499, -0.00220387, -0.0021831, 0.00471097, 0.440355, 0.341695
649.80252893700003369, -0.00284476, -0.00220315, -0.00218136, 0.00466797, 0.440371, 0.341732
649.83584527499999695, -0.00283803, -0.00220067, -0.00217785, 0.00463471, 0.440428, 0.341751
649.86916160399994169, -0.00283692, -0.00220152, -0.00217653, 0.00452626, 0.440385, 0.341834
649.90247794200001863, -0.00281972, -0.00219603, -0.00217176, 0.00442841, 0.440456, 0.341812
649.93579430399995545, -0.00278869, -0.00219664, -0.00216404, 0.00440972, 0.440665, 0.341962
649.96911063699997158, -0.00277961, -0.00219687, -0.00216087, 0.00437771, 0.440716, 0.34202
650.00257694200001879, -0.00276501, -0.0021978, -0.0021567, 0.00437789, 0.440823, 0.342097
650.03589330399995561, -0.00274859, -0.00219642, -0.00215235, 0.00434198, 0.440912, 0.342128
650.06920960399997966, -0.00274496, -0.00219642, -0.00215048, 0.00429807, 0.440905, 0.342172
650.10252596999998786, -0.00273454, -0.00219706, -0.00214722, 0.004302, 0.440991, 0.342217
650.13584230399999342, -0.0027107, -0.00219804, -0.00214048, 0.00428334, 0.441143, 0.342315
650.16915863700000955, -0.00268834, -0.00219583, -0.00213342, 0.00423826, 0.441261, 0.342369
650.20247497000002568, -0.00268236, -0.0021991, -0.00213235, 0.00425748, 0.441316, 0.34243
650.23579130400003123, -0.00267808, -0.00219995, -0.00213193, 0.00428608, 0.441374, 0.342428
650.26910760800001299, -0.00265658, -0.00219649, -0.00212664, 0.00433809, 0.441588, 0.342379
650.3024239699999498, -0.00262829, -0.00218806, -0.00211788, 0.00437451, 0.441849, 0.342291
650.33589030400003139, -0.00260846, -0.00218357, -0.00211023, 0.00438909, 0.442025, 0.342292
650.36920660800001315, -0.00258596, -0.00217915, -0.0021042, 0.00443767, 0.442244, 0.342244
650.4025229420000187, -0.0025725, -0.00217746, -0.00210061, 0.00447081, 0.442376, 0.342227
650.43583926999997402, -0.00255402, -0.00216868, -0.00209017, 0.00442377, 0.442485, 0.34234
650.46915563699997165, -0.00254476, -0.00216636, -0.00208667, 0.0044119, 0.442526, 0.342397
650.50247193699999571, -0.00253298, -0.00215676, -0.00208334, 0.00445982, 0.442719, 0.342275
650.53578853700003037, -0.00252435, -0.00215357, -0.00208083, 0.00453171, 0.442895, 0.342178
650.56910460799997509, -0.00252071, -0.00216257, -0.0020859, 0.00459872, 0.442906, 0.342049
650.60242094199998064, -0.0025174, -0.00217, -0.0020814, 0.00457589, 0.442819, 0.342265
650.63573730400003114, -0.00250417, -0.00217504, -0.00208969, 0.00470676, 0.442969, 0.341876
650.66905363700004727, -0.00249265, -0.00217523, -0.00208489, 0.00473417, 0.443049, 0.341976
650.70251997000002575, -0.00250865, -0.00217387, -0.00208693, 0.00467814, 0.442944, 0.341971
650.7358363040000313, -0.0025316, -0.00218944, -0.00209837, 0.00464822, 0.442622, 0.341687
650.76915260800001306, -0.00251526, -0.00219094, -0.00209091, 0.00470721, 0.442701, 0.341843
650.8024689369999578, -0.00251803, -0.00219417, -0.00208515, 0.0046839, 0.442609, 0.342041
650.83578530399995543, -0.00256318, -0.00219925, -0.00210485, 0.00459471, 0.442316, 0.341433
650.86910160399997949, -0.00256871, -0.00220175, -0.00210739, 0.0045813, 0.442246, 0.341369
650.90241791300002205, -0.00256924, -0.00220321, -0.00211055, 0.0046209, 0.442255, 0.341207
650.93573430399999324, -0.0025828, -0.00220346, -0.0021194, 0.00459903, 0.442213, 0.340899
650.96905063700000937, -0.00259123, -0.00220646, -0.002125, 0.00459621, 0.442129, 0.340686
651.00236693700003343, -0.00260009, -0.0022052, -0.00213206, 0.00461675, 0.442147, 0.340383
651.0358333039999934, -0.00259871, -0.00220534, -0.00213157, 0.00463542, 0.442158, 0.340376
651.06914963700000953, -0.00260584, -0.00220569, -0.00213461, 0.00461391, 0.442123, 0.340281
651.10246597000002566, -0.00261164, -0.00220199, -0.00213704, 0.00461215, 0.442192, 0.340174
651.13578230400003122, -0.00262027, -0.00219971, -0.00214136, 0.00460082, 0.442217, 0.340013
651.16909863700004735, -0.00262645, -0.00220551, -0.00214524, 0.00461307, 0.442077, 0.339863
