time, bias_gyr_x, bias_gyr_y, bias_gyr_z, bias_acc_x, bias_acc_y, bias_acc_z
-1, 0, 0, 0, 0, 0, 0
844.56002307599999313, 0, 0, 0, 0, 0, 0
844.59333940900000925, -0.0271347, -0.0374451, -0.00446531, 8.03476e-05, -5.07183e-05, -9.37816e-05
844.62665570900003331, -0.0274715, -0.0347797, -0.00969807, 0.00236823, 5.63163e-05, -0.000747742
844.65997207600003094, -0.0294532, -0.0268893, -0.0103959, -0.00596069, -0.00254356, 0.000791358
844.69328838100000212, -0.0360813, -0.0243099, -0.00652669, -0.00731892, -0.00178008, 0.000802243
844.72660471400001825, -0.0350264, -0.0181286, -0.00340756, -0.02335, -0.00228167, 0.00269513
844.75992107599995506, -0.0284284, -0.0132128, -0.00475316, -0.0488907, -0.00415943, 0.00557433
844.79323740899997119, -0.0222641, -0.0101862, -0.00596047, -0.0407201, -0.00340791, 0.00487416
844.82655374299997675, -0.0188296, -0.00922956, -0.00665143, -0.0454259, -0.00393169, 0.00543197
844.86002004299996315, -0.0197402, -0.0103191, -0.00827246, -0.0525925, -0.00485612, 0.00632605
844.89333640899997135, -0.020992, -0.0104062, -0.00861548, -0.0469256, -0.00432367, 0.00572095
844.92665274299997691, -0.0225724, -0.0100425, -0.0089046, -0.0459059, -0.00421891, 0.00561819
844.95996907599999304, -0.0266946, -0.00986838, -0.00770213, -0.0498381, -0.00465278, 0.00583391
844.99328964699998323, -0.0295227, -0.0103358, -0.00723617, -0.0398523, -0.00377639, 0.00470858
845.02660174300001472, -0.0318949, -0.0103772, -0.00722268, -0.0389317, -0.00367427, 0.00458504
845.05991807600003085, -0.0338883, -0.00951974, -0.00689862, -0.0510678, -0.00463293, 0.00611001
845.09323440900004698, -0.0355555, -0.00757458, -0.00614726, -0.0517359, -0.00452232, 0.00633787
845.12655074200006311, -0.0369541, -0.00662688, -0.00549445, -0.0532709, -0.00449582, 0.00680068
845.15986707599995498, -0.0373946, -0.00465882, -0.00472852, -0.0562465, -0.00452696, 0.00665702
845.19318340899997111, -0.0366404, -0.00239757, -0.00395325, -0.0517887, -0.00350608, 0.00594297
845.22664974200006327, -0.0358669, -0.00131876, -0.00330504, -0.0431211, -0.00186467, 0.00487486
845.25996603800001594, -0.0350824, -0.000429829, -0.00267345, -0.0404529, -0.00144392, 0.00439471
845.29328240899997127, -0.0345779, 0.000131977, -0.00213289, -0.041387, -0.00180862, 0.00393234
845.3265987419999874, -0.0337443, 0.000217966, -0.00168335, -0.0435746, -0.00200411, 0.00417397
845.35991504200001145, -0.0322178, -0.000443944, -0.0017811, -0.0425204, -0.00142061, 0.00433242
845.39323140900000908, -0.0312152, -0.000632823, -0.0019151, -0.0379688, -0.000690879, 0.0033401
845.42654771399998026, -0.030041, -0.0010699, -0.00227164, -0.0350102, -0.000511338, 0.00261711
845.45986470000002555, -0.0285617, -0.00174524, -0.0028028, -0.0367775, -0.000706284, 0.00304717
845.49318037600005482, -0.0280716, -0.00246743, -0.00297962, -0.0376534, -0.000653425, 0.00326062
845.52649670899995726, -0.0276453, -0.0033763, -0.00313885, -0.0388245, -0.000613623, 0.00318034
845.55996304699999655, -0.0270618, -0.00453735, -0.00335797, -0.0393454, -0.00059985, 0.00348886
845.59327940900004705, -0.0266491, -0.00589766, -0.0036894, -0.0419192, -0.0013358, 0.0048722
845.62659574200006318, -0.0259729, -0.00704491, -0.00439211, -0.0441655, -0.00204898, 0.00542688
845.65991204199997355, -0.0256284, -0.00774735, -0.00467875, -0.0329942, -0.00236588, 0.00426648
845.69322840899997118, -0.0254682, -0.00791433, -0.00485683, -0.0310882, -0.00266035, 0.00618129
845.72654471400005605, -0.0253825, -0.00794536, -0.00481917, -0.030714, -0.00390935, 0.00344902
845.75986107599999286, -0.0250522, -0.00778751, -0.00476803, -0.0344033, -0.00436369, 0.00151357
845.79317740900000899, -0.0248858, -0.00776621, -0.00465961, -0.0342304, -0.00544175, 0.00454636
845.82649374200002512, -0.0245219, -0.00772138, -0.00480003, -0.0391883, -0.00426553, 0.00283107
845.85981004200004918, -0.0243444, -0.00763385, -0.00494761, -0.037367, -0.00172989, 0.000633283
845.89312637600005473, -0.0240838, -0.00775114, -0.00511778, -0.0359675, -2.53819e-05, -0.00359127
845.92659270900003321, -0.0238888, -0.00753831, -0.00511679, -0.0254532, 0.004652, -0.00518246
845.95990907600003084, -0.0236735, -0.00720229, -0.00499966, -0.0186521, 0.0107947, -0.00434583
845.99322540900004697, -0.0234234, -0.00688048, -0.00492297, -0.0270317, 0.0183699, -0.00684376
846.0265417420000631, -0.0230825, -0.00668873, -0.00460815, -0.0294523, 0.0265119, -0.0069398
846.05985804700003428, -0.0227638, -0.0066905, -0.00437919, -0.0290411, 0.031207, -0.00623144
846.09317440899997109, -0.0223969, -0.00663085, -0.00432333, -0.0318121, 0.0385735, -0.00532104
846.12649074199998722, -0.0218438, -0.00658818, -0.00451969, -0.0315767, 0.0469955, -0.00653481
846.15980707599999278, -0.0212939, -0.00641968, -0.00451199, -0.0352126, 0.056241, -0.00885329
846.19312337999997453, -0.0208661, -0.00640708, -0.00445538, -0.0387875, 0.0627395, -0.0108656
846.22643971399998009, -0.0206666, -0.00658707, -0.00433593, -0.0322231, 0.0668042, -0.00906346
846.25990604200001144, -0.0204919, -0.00667061, -0.00430198, -0.0327815, 0.0717555, -0.00790407
846.29322237600001699, -0.0200875, -0.00677594, -0.00440008, -0.0350821, 0.0743741, -0.00782851
846.32653870900003312, -0.0198269, -0.00703089, -0.00455131, -0.0342073, 0.0758776, -0.00812201
846.35985507600003075, -0.0200913, -0.00725334, -0.00439605, -0.036863, 0.0772556, -0.00699496
846.39317140900004688, -0.020622, -0.00748269, -0.00424982, -0.0388121, 0.0755319, -0.00798362
846.42648771400001806, -0.0212681, -0.0073929, -0.00397897, -0.0394871, 0.0766529, -0.00852431
846.45980407599995488, -0.0215783, -0.00751708, -0.00384097, -0.0385215, 0.0805915, -0.00583459
846.49312037599997893, -0.0218542, -0.0078042, -0.00384577, -0.0372398, 0.0853234, -0.00487623
846.52643670899999506, -0.0221151, -0.00824553, -0.00380792, -0.0392097, 0.0853573, -0.00446641
846.55975307100004557, -0.0221197, -0.00864915, -0.00386527, -0.0399655, 0.0868288, -0.0030627
846.59306940900000882, -0.0219764, -0.00886963, -0.00407738, -0.0412008, 0.0893962, -0.00294672
846.62653570899999522, -0.0217009, -0.00906808, -0.00430191, -0.0387587, 0.0908277, -0.0012875
846.65985204200001135, -0.0215901, -0.00905055, -0.00430534, -0.0388338, 0.0918058, -0.000683145
846.69316840900000898, -0.0216283, -0.00913805, -0.00432573, -0.040259, 0.0920163, -0.000686768
846.72648474200002511, -0.0219446, -0.00936557, -0.004411, -0.0390045, 0.0913264, 5.74456e-05
846.75980104200004916, -0.0219952, -0.00930226, -0.00438079, -0.0381667, 0.090698, -9.80615e-05
846.79311734700002035, -0.0220635, -0.00930473, -0.0044291, -0.0408565, 0.0906845, -0.000186682
846.82643374200006292, -0.0222297, -0.00945342, -0.00447597, -0.0471052, 0.0916047, 0.000468423
846.85975007599995479, -0.0222954, -0.00971275, -0.00460523, -0.0525257, 0.094312, 0.000534305
846.89306640400002379, -0.0224718, -0.0100618, -0.00485571, -0.0528832, 0.0970728, 0.00100905
846.92638274199998705, -0.022454, -0.0104032, -0.00521996, -0.0510688, 0.100143, 0.00157907
846.95984907599995495, -0.0226922, -0.0104832, -0.00533356, -0.0466996, 0.100879, -0.000281787
846.99316537599997901, -0.0229158, -0.0104454, -0.00542758, -0.0430299, 0.100686, -0.00114473
847.02648170899999513, -0.023082, -0.0101444, -0.00529128, -0.0430951, 0.0995338, -0.00105794
847.05979804200001126, -0.0227421, -0.00988012, -0.00521803, -0.0499512, 0.10082, -0.000241354
847.09311437999997452, -0.0224465, -0.00941786, -0.00494128, -0.056874, 0.100445, -0.00108955
847.12643071399998007, -0.0223062, -0.00906368, -0.00479442, -0.0579284, 0.100932, -0.00521194
847.15974704200004908, -0.0220627, -0.00876364, -0.00473163, -0.0583474, 0.101001, -0.00679641
847.19306338000001233, -0.0221576, -0.00860962, -0.00472832, -0.0565282, 0.100741, -0.0053046
847.22637970899995707, -0.0221513, -0.00839851, -0.0047527, -0.0525595, 0.100238, -0.00424876
847.2596960759999547, -0.0223592, -0.0082619, -0.00462038, -0.0532857, 0.0996292, -0.00342912
847.29316237600005479, -0.0225655, -0.00804447, -0.00433604, -0.0518705, 0.0992605, -0.00497064
847.32647870899995723, -0.0225754, -0.00826959, -0.00436257, -0.0517811, 0.100538, -0.005806
847.35979507499996544, -0.022357, -0.00850402, -0.00462228, -0.0510238, 0.101991, -0.00600743
847.39311137499998949, -0.0222024, -0.00826759, -0.00461234, -0.0514869, 0.100372, -0.00689894
847.42642771400005586, -0.0218239, -0.00803128, -0.00473621, -0.0508409, 0.0995036, -0.00748253
847.45974407500000325, -0.0216406, -0.00794865, -0.00472143, -0.052851, 0.0993308, -0.00627247
847.49306037500002731, -0.0215373, -0.00766045, -0.00460056, -0.048661, 0.0989618, -0.00872696
847.52637674200002493, -0.0213015, -0.00743576, -0.00457062, -0.0430763, 0.0986237, -0.0124488
847.55969304699999611, -0.0210572, -0.00745067, -0.00458823, -0.0422607, 0.0980881, -0.01277
847.59300937500006512, -0.0210876, -0.00729075, -0.00438506, -0.0423381, 0.0979044, -0.0126842
847.62632574200006275, -0.0210223, -0.00728346, -0.0043766, -0.041517, 0.0969796, -0.0159997
847.65979207500004122, -0.0208614, -0.00740652, -0.00441978, -0.0370923, 0.094746, -0.017583
847.6931083800000124, -0.0208936, -0.00718589, -0.00410953, -0.0349755, 0.0948953, -0.0141972
847.72642471400001796, -0.0208291, -0.00697437, -0.00397459, -0.0371583, 0.0958229, -0.011553
847.75974107499996535, -0.0208167, -0.00679012, -0.00376836, -0.038675, 0.0971976, -0.00648611
847.79305738000005022, -0.0206389, -0.00663091, -0.00375284, -0.0463626, 0.100055, -0.00472829
847.82637374199998703, -0.0204667, -0.00656711, -0.00384029, -0.0435417, 0.100674, -0.00608885
847.85969007500000316, -0.0203272, -0.0065506, -0.00401552, -0.0313517, 0.0999665, -0.0139682
847.89300700399996913, -0.0201616, -0.00665859, -0.00427761, -0.0296301, 0.098543, -0.0223569
847.92632270900003277, -0.0201786, -0.00673768, -0.00413748, -0.0232953, 0.0969384, -0.0214838
847.9596390420000489, -0.0201088, -0.00668292, -0.00411627, -0.0197163, 0.101318, -0.0219371
847.99310541800002738, -0.0199422, -0.00652409, -0.00405932, -0.0246957, 0.111009, -0.0193603
848.02642170900003293, -0.0197215, -0.00647812, -0.00401685, -0.0283712, 0.116547, -0.0170394
848.05973804200004906, -0.0194758, -0.00627, -0.00401296, -0.0298667, 0.125167, -0.0156982
848.09305434700002024, -0.0191556, -0.00610972, -0.00408962, -0.0364244, 0.130856, -0.0168951
848.12637073700000201, -0.018743, -0.00610475, -0.00429899, -0.0332348, 0.132628, -0.0199683
848.159687047000034, -0.0184042, -0.00598414, -0.00459475, -0.0314836, 0.135519, -0.0219436
848.19300338000005013, -0.0184909, -0.00584503, -0.00457455, -0.03235, 0.138609, -0.0232031
848.22631971300006626, -0.0186716, -0.00556707, -0.00442566, -0.0348584, 0.142736, -0.0236226
848.25963601800003744, -0.0189303, -0.00531782, -0.00433347, -0.0394732, 0.148474, -0.0247103
848.29295240900000863, -0.0193809, -0.00518211, -0.0041375, -0.0462906, 0.151244, -0.0248755
848.32626874200002476, -0.0198531, -0.00503081, -0.00394921, -0.0482704, 0.152395, -0.0245238
848.35973507500000323, -0.0198924, -0.00499489, -0.00396435, -0.0501141, 0.155178, -0.0246886
848.39305137500002729, -0.0200833, -0.00495809, -0.00379031, -0.0505566, 0.15684, -0.0232896
848.42636771299999054, -0.020517, -0.00505488, -0.0035371, -0.0477383, 0.156471, -0.0212007
848.4596840469999961, -0.0207212, -0.00529335, -0.00342985, -0.0492683, 0.157157, -0.0215161
848.49300038000001223, -0.0207342, -0.00564243, -0.00353421, -0.0511993, 0.157429, -0.0226596
848.52631674200006273, -0.0208217, -0.00606267, -0.00358366, -0.0498824, 0.156504, -0.0207291
848.55963307499996517, -0.0209904, -0.00657813, -0.00360707, -0.0490634, 0.155922, -0.0189576
848.59294940899997073, -0.0210987, -0.00707471, -0.00371373, -0.0490963, 0.156709, -0.0182545
848.62626570899999479, -0.0210616, -0.00761737, -0.00401515, -0.0516867, 0.158736, -0.0194644
848.65958207500000299, -0.0208869, -0.00827332, -0.00444264, -0.0496325, 0.159407, -0.0170675
848.69304837499998939, -0.0208865, -0.00824687, -0.00449078, -0.0466853, 0.158004, -0.0164114
848.72636474199998702, -0.02087, -0.00806137, -0.00451645, -0.04791, 0.156905, -0.0189237
848.75968108000006396, -0.0206919, -0.00798535, -0.00467999, -0.0470836, 0.156281, -0.0190856
848.7929974090000087, -0.0207363, -0.00792573, -0.00462577, -0.0420699, 0.155514, -0.018035
848.82631374200002483, -0.0206273, -0.00796226, -0.0046977, -0.0435414, 0.157447, -0.0199504
848.85963007500004096, -0.0204933, -0.00807517, -0.00488819, -0.0466799, 0.160553, -0.0202254
848.89294637500006502, -0.0201994, -0.00809053, -0.00507595, -0.0475305, 0.164186, -0.0195065
848.92626271300002827, -0.0198866, -0.00803653, -0.00522758, -0.045425, 0.168404, -0.0171889
848.95957904700003382, -0.0195906, -0.00772282, -0.00528039, -0.0465488, 0.170711, -0.0180991
848.99289538000004995, -0.0195505, -0.00762285, -0.00533429, -0.0467046, 0.17295, -0.0185688
849.02621174199998677, -0.0194777, -0.00766289, -0.0053807, -0.0452355, 0.176549, -0.0167373
849.05967804199997317, -0.0193569, -0.00757023, -0.00534288, -0.0426567, 0.177307, -0.0175562
849.0929944089999708, -0.0191244, -0.00740336, -0.00529854, -0.0441423, 0.178076, -0.018588
849.12631074199998693, -0.0189404, -0.00739702, -0.00530297, -0.0431011, 0.179453, -0.019271
849.15962707500000306, -0.0188804, -0.00737619, -0.00530197, -0.0405994, 0.178038, -0.0195052
849.19294340900000861, -0.0187951, -0.0073468, -0.0052957, -0.0368048, 0.176355, -0.0207524
849.22625974200002474, -0.0188042, -0.00737272, -0.00514312, -0.0399948, 0.175771, -0.0244362
849.25957607500004087, -0.0186841, -0.00743517, -0.00501906, -0.0409772, 0.174049, -0.0268121
849.29289240900004643, -0.0187315, -0.00739406, -0.00487619, -0.0406737, 0.171479, -0.027114
849.3262087089999568, -0.0187527, -0.00729605, -0.00471694, -0.0402922, 0.169578, -0.0287282
849.35952504700003374, -0.0186202, -0.00733329, -0.0046822, -0.0393923, 0.169565, -0.0275581
849.39299140900004659, -0.0185989, -0.00737033, -0.00454414, -0.040291, 0.169942, -0.0266081
849.42630770899995696, -0.0185421, -0.00757637, -0.00443847, -0.0396354, 0.171588, -0.0272242
849.45962407499996516, -0.0183914, -0.00763258, -0.00440084, -0.0374288, 0.171793, -0.0278878
849.49294037499998922, -0.0182472, -0.00770669, -0.0043392, -0.0369919, 0.172459, -0.0281328
849.52625674199998684, -0.0182873, -0.00773992, -0.00424471, -0.0383566, 0.172872, -0.0277673
849.55957304699995802, -0.0182142, -0.00758311, -0.00414322, -0.0361543, 0.172366, -0.028501
849.5928894080000191, -0.0181098, -0.0075635, -0.00409401, -0.0357266, 0.172299, -0.0284495
849.62620573699996385, -0.0179558, -0.00747737, -0.00416471, -0.0368309, 0.172314, -0.0294847
849.65952204200004871, -0.0178724, -0.00738406, -0.00416236, -0.0352159, 0.172014, -0.0300678
849.69283837000000403, -0.0178402, -0.00720297, -0.00407545, -0.0308408, 0.171558, -0.02949
849.72615474200006247, -0.0178195, -0.00711604, -0.0039464, -0.0333121, 0.171642, -0.0278236
849.75962107500004095, -0.0177624, -0.00727878, -0.00410079, -0.034345, 0.17063, -0.029968
849.792937375000065, -0.0176873, -0.00708125, -0.00405721, -0.0353806, 0.172735, -0.0301543
849.82625370799996745, -0.0176939, -0.00697666, -0.00395392, -0.038492, 0.174402, -0.0289465
849.85957007499996507, -0.0176435, -0.00696649, -0.00390104, -0.0410581, 0.175453, -0.0279924
849.89288638000004994, -0.0175106, -0.00701666, -0.00398881, -0.0399534, 0.175534, -0.0294503
849.92620270800000526, -0.0173295, -0.00704962, -0.00410178, -0.0388524, 0.177034, -0.031375
849.95951907500000289, -0.0172037, -0.00712857, -0.00409007, -0.0375703, 0.176702, -0.0298374
849.99283537999997407, -0.0171063, -0.00715202, -0.00417384, -0.0348706, 0.178927, -0.0299359
850.02615171800005101, -0.0170458, -0.00712311, -0.00416354, -0.0364735, 0.181526, -0.0293788
850.05946801300001425, -0.0170084, -0.00698098, -0.00410683, -0.0400798, 0.184683, -0.031563
850.09293440800001918, -0.0170095, -0.00675383, -0.00402938, -0.03904, 0.188634, -0.0298911
850.12625067999999828, -0.0170301, -0.0064602, -0.00386599, -0.0353604, 0.19372, -0.0247254
850.15956707500004086, -0.0170616, -0.00619016, -0.00377452, -0.0354771, 0.200411, -0.0248513
850.19288338000001204, -0.0170726, -0.00605641, -0.00377715, -0.0332584, 0.202978, -0.0247073
850.22619968499998322, -0.0171302, -0.00601388, -0.00372445, -0.0325406, 0.204919, -0.0253785
850.25951607499996499, -0.0172959, -0.00615514, -0.00366441, -0.0377917, 0.204264, -0.0300562
850.29283240799998111, -0.0174776, -0.00619991, -0.0035689, -0.0398604, 0.204527, -0.0316534
850.32614875100000518, -0.0176994, -0.00618993, -0.00344926, -0.0388972, 0.204579, -0.0307256
850.35946504200001073, -0.0178024, -0.0062814, -0.00332678, -0.037022, 0.202676, -0.0280804
850.39278137500002686, -0.0178374, -0.00614874, -0.00319206, -0.034233, 0.203096, -0.0252451
850.42624767999996038, -0.0179584, -0.00594836, -0.00298677, -0.0325947, 0.20399, -0.0240923
850.45956404599996858, -0.0181741, -0.00579808, -0.00273401, -0.0321983, 0.204911, -0.0250368
850.49288039400005346, -0.0183527, -0.00574393, -0.00259935, -0.0339357, 0.205514, -0.0279694
850.52619670800004315, -0.0185121, -0.00574123, -0.00257294, -0.0375219, 0.205948, -0.0320816
850.55951307500004077, -0.0187364, -0.00577771, -0.00250548, -0.0348345, 0.20556, -0.0299542
850.5928294080000569, -0.0188761, -0.00577449, -0.00241115, -0.0310162, 0.204754, -0.0273698
850.62614574200006246, -0.0189496, -0.00566811, -0.00237688, -0.0313604, 0.204041, -0.0271454
850.6594620749999649, -0.0190228, -0.00563113, -0.00237839, -0.0312207, 0.204375, -0.0265578
850.69277837499998896, -0.0190091, -0.0056217, -0.00235198, -0.0297387, 0.205393, -0.0259601
850.72609474199998658, -0.0189003, -0.00562516, -0.00237725, -0.0306403, 0.207406, -0.026239
850.75941104200001064, -0.0187358, -0.00561907, -0.00245805, -0.0330753, 0.210288, -0.0275825
850.79287740799998119, -0.0187361, -0.00568984, -0.00249268, -0.0325698, 0.212972, -0.0290511
850.82619371300006605, -0.0186264, -0.00577721, -0.00257308, -0.0286965, 0.214579, -0.0240099
850.8595100420000108, -0.0184634, -0.00583965, -0.00265851, -0.026628, 0.216813, -0.0214019
850.89282634599999255, -0.0182965, -0.00585465, -0.00273092, -0.0284267, 0.219297, -0.0229543
850.92614271299999018, -0.0181475, -0.00578643, -0.00275185, -0.0310202, 0.220331, -0.0242982
850.95945904600000631, -0.0179962, -0.00578918, -0.00268895, -0.031325, 0.220919, -0.0261492
850.99277719400004116, -0.0178922, -0.00579472, -0.0026224, -0.0298669, 0.222583, -0.0276962
851.02609170799996718, -0.0177465, -0.00562181, -0.00259885, -0.0307539, 0.220802, -0.0272812
851.05940807499996481, -0.0175685, -0.00536996, -0.00257134, -0.030726, 0.218209, -0.0264564
851.09272440799998094, -0.0174631, -0.00534332, -0.00253062, -0.0298274, 0.218971, -0.0279824
851.12619074200006253, -0.0173596, -0.00529305, -0.00244022, -0.0290036, 0.219746, -0.0297623
851.15950707499996497, -0.0173963, -0.00530468, -0.00235691, -0.0294148, 0.220415, -0.0295608
851.19282338000004984, -0.0173839, -0.00516032, -0.00221941, -0.0306502, 0.218104, -0.0298489
851.22613974199998665, -0.017313, -0.00521032, -0.00207359, -0.0311131, 0.219012, -0.0309298
851.25945603700006359, -0.0173147, -0.00523373, -0.00192041, -0.0321512, 0.220203, -0.0321373
851.29277240800001891, -0.0170394, -0.00539683, -0.00196625, -0.0307128, 0.22167, -0.0321747
851.32608874200002447, -0.0168236, -0.00536176, -0.00197644, -0.0309297, 0.221033, -0.0328148
851.3594050750000406, -0.0166801, -0.00539446, -0.00192167, -0.031093, 0.221678, -0.0330292
851.39272140800005673, -0.0166157, -0.0054485, -0.00189958, -0.030765, 0.222056, -0.0329273
851.4260377079999671, -0.0165573, -0.00552459, -0.00194854, -0.0300421, 0.22226, -0.0326941
851.45935404600004404, -0.0164458, -0.00558564, -0.00199311, -0.0290206, 0.222072, -0.0327584
851.49282040800005689, -0.0162851, -0.00555414, -0.00200783, -0.0263958, 0.221514, -0.0333842
851.52613671300002807, -0.0161966, -0.00556221, -0.00203516, -0.0242994, 0.220901, -0.0341085
851.55945304199997281, -0.016147, -0.00551435, -0.00201196, -0.0240467, 0.220386, -0.034699
851.59276937499998894, -0.016064, -0.00542268, -0.00202255, -0.0237552, 0.220796, -0.0350465
851.62608571300006588, -0.0159865, -0.00539655, -0.00204423, -0.0229736, 0.220634, -0.0354792
851.65940204200001062, -0.0159463, -0.00545407, -0.00206865, -0.0216547, 0.219701, -0.036162
851.69271840800001883, -0.0159538, -0.00539328, -0.00201689, -0.0209203, 0.220453, -0.0349991
851.72603474200002438, -0.0159039, -0.0052375, -0.00200397, -0.0227321, 0.223261, -0.035284
851.75935107500004051, -0.0158361, -0.00513391, -0.00198924, -0.0260068, 0.225635, -0.0359974
851.79266738000001169, -0.0157432, -0.00505447, -0.00190254, -0.0238501, 0.227452, -0.0343979
851.82613374599998224, -0.0155596, -0.00510944, -0.00191913, -0.0236363, 0.226703, -0.034796
851.85945005600001423, -0.0154797, -0.00516786, -0.00191929, -0.0249609, 0.226301, -0.0352331
851.8927664080000568, -0.0153275, -0.00502254, -0.00198828, -0.0217009, 0.230097, -0.0361783
851.92608270799996717, -0.0153176, -0.00486539, -0.00193031, -0.0217927, 0.233823, -0.0345862
851.95939904600004411, -0.0152813, -0.00472511, -0.00189016, -0.0245872, 0.237309, -0.0352875
851.99271538000004966, -0.0151879, -0.00453707, -0.00194869, -0.028653, 0.242546, -0.0406475
852.02603174099999706, -0.015193, -0.00433775, -0.00187307, -0.0275505, 0.247387, -0.0390594
852.05934804100002111, -0.0152717, -0.00429058, -0.00177455, -0.024513, 0.248824, -0.0343877
852.09266437500002667, -0.0154478, -0.00425854, -0.00170144, -0.0258313, 0.251544, -0.0357203
852.1259807080000428, -0.015763, -0.00435347, -0.00161177, -0.0262303, 0.251586, -0.0364551
852.15929704100005893, -0.0159313, -0.00432286, -0.0015689, -0.0239098, 0.252496, -0.0342211
852.19276337500002683, -0.0160638, -0.00432743, -0.00153322, -0.0239594, 0.253337, -0.0346312
852.22607974100003503, -0.0162225, -0.00433526, -0.00148126, -0.0243276, 0.253337, -0.0348909
852.25939604600000621, -0.016382, -0.00425044, -0.00138353, -0.0233367, 0.253974, -0.033545
852.29271240800005671, -0.0165791, -0.00413455, -0.00127922, -0.0227548, 0.254468, -0.0329936
852.32602870799996708, -0.0166711, -0.00410163, -0.00123897, -0.0241535, 0.255083, -0.0351002
852.35934501799999907, -0.0168387, -0.00410417, -0.0011007, -0.0265293, 0.255837, -0.0397376
852.39266140799998084, -0.0169626, -0.00403234, -0.000944273, -0.0264885, 0.255837, -0.0411882
852.42597774099999697, -0.017048, -0.00403395, -0.000854199, -0.0248395, 0.255665, -0.0397015
852.45929407500000252, -0.0170617, -0.00403277, -0.000796332, -0.0259042, 0.256179, -0.0425526
852.49261037500002658, -0.0170924, -0.00391843, -0.00076516, -0.0263371, 0.25477, -0.043844
852.52607670800000506, -0.0170883, -0.00391435, -0.000786568, -0.0239374, 0.254061, -0.0404011
852.55939305100002912, -0.0170671, -0.00400213, -0.000866555, -0.0213717, 0.254366, -0.0354243
852.59270937899998444, -0.0170142, -0.00408177, -0.000921568, -0.02006, 0.256109, -0.0322334
852.62602574100003494, -0.0169819, -0.00416591, -0.000948791, -0.0201198, 0.258362, -0.032867
852.65934201799996117, -0.0169317, -0.00422829, -0.000965092, -0.0205379, 0.2604, -0.0356307
852.69265840800005662, -0.0168203, -0.00413803, -0.00101755, -0.0216938, 0.259547, -0.0356462
852.72597487899997759, -0.0167323, -0.00413229, -0.00107113, -0.0222894, 0.261095, -0.0357398
852.75929107499996462, -0.0165909, -0.00405435, -0.00105671, -0.0207791, 0.260258, -0.0355779
852.79260796500000197, -0.0163523, -0.00402733, -0.00113288, -0.019546, 0.260948, -0.0323297
852.82592373700003918, -0.0160999, -0.00409599, -0.00124773, -0.0188412, 0.264634, -0.0292546
852.85924004599996806, -0.0160557, -0.00409707, -0.00131422, -0.0183145, 0.26668, -0.0289361
852.89270637499998884, -0.0159795, -0.00411329, -0.00132026, -0.0208878, 0.269045, -0.0326659
852.92602270800000497, -0.0159001, -0.00406211, -0.00132853, -0.0210694, 0.270233, -0.0325353
852.95933944099999735, -0.015808, -0.00401306, -0.00126247, -0.0205161, 0.272142, -0.0344502
852.99265537899998435, -0.0156988, -0.00387918, -0.0011913, -0.0200152, 0.271639, -0.0350958
853.02597174100003485, -0.0156236, -0.0037602, -0.00110487, -0.0200378, 0.271323, -0.0352197
853.05928804100005891, -0.0155267, -0.00367087, -0.000981866, -0.0209783, 0.269832, -0.0365702
853.09260437900002216, -0.0154374, -0.00351994, -0.00091429, -0.0201717, 0.266947, -0.0373568
853.12592070799996691, -0.0153173, -0.00348393, -0.000874478, -0.0197025, 0.266958, -0.0360227
853.15923704600004385, -0.0153325, -0.00346994, -0.000750315, -0.0210588, 0.267669, -0.036138
853.19255337499998859, -0.0152779, -0.00349464, -0.000749662, -0.0200178, 0.268845, -0.0355578
853.22601971300002788, -0.0151656, -0.00362597, -0.000770383, -0.0193808, 0.270653, -0.0351151
853.25933607499996469, -0.0150697, -0.00366329, -0.000747368, -0.0192489, 0.270852, -0.0352317
853.29265235100001519, -0.0150751, -0.00361711, -0.000677694, -0.020528, 0.270103, -0.034744
853.32596870800000488, -0.0150421, -0.00361646, -0.000641402, -0.0200934, 0.270217, -0.0350029
853.35928504100002101, -0.0149425, -0.00366901, -0.000680279, -0.0202534, 0.270065, -0.0347139
853.39260137899998426, -0.0148955, -0.00368603, -0.000674485, -0.0193388, 0.269807, -0.0351407
853.42591770800004269, -0.014952, -0.00378047, -0.000639961, -0.0161682, 0.269273, -0.0368104
853.45923404600000595, -0.0148646, -0.00376647, -0.000685027, -0.0156093, 0.269262, -0.0387474
853.49255037900002208, -0.0148216, -0.00375172, -0.000594935, -0.0166742, 0.269298, -0.0373815
853.52586674099995889, -0.0147105, -0.00370978, -0.000602431, -0.0175403, 0.27003, -0.0381643
853.55918307499996445, -0.0145715, -0.00365146, -0.000566309, -0.0190027, 0.271331, -0.0378988
853.59264940800005661, -0.0144199, -0.00357905, -0.000572614, -0.0212889, 0.273358, -0.0387169
853.62596571300002779, -0.0143429, -0.00355552, -0.000644481, -0.0214924, 0.27426, -0.041695
853.65928204600004392, -0.0143494, -0.00346689, -0.000596512, -0.0234485, 0.277216, -0.0400964
853.69259837900006005, -0.0143314, -0.00336146, -0.000555494, -0.0274706, 0.281915, -0.0387513
853.72591467899997042, -0.0142952, -0.00323868, -0.000543001, -0.0266014, 0.28577, -0.0401182
853.75923107500000242, -0.0143768, -0.00320654, -0.000442729, -0.0234551, 0.286464, -0.0383229
853.79254740800001855, -0.0145024, -0.00318714, -0.000446764, -0.0215649, 0.288038, -0.0394865
853.82586374100003468, -0.0146809, -0.00327717, -0.000451331, -0.0193206, 0.286518, -0.0399789
853.85918007500004023, -0.0146586, -0.00324018, -0.000402809, -0.0161421, 0.28722, -0.0394234
853.89249640800005636, -0.0145547, -0.00311374, -0.00043684, -0.0163337, 0.290737, -0.0406506
853.92596270800004277, -0.0144816, -0.00301075, -0.000469415, -0.0187781, 0.29391, -0.041305
853.95927925099999811, -0.0145086, -0.00293362, -0.0003679, -0.0180891, 0.29608, -0.0393504
853.99259608900001695, -0.0145805, -0.00290565, -0.000295145, -0.0214008, 0.297786, -0.0377292
854.02591174099995897, -0.014544, -0.00289869, -0.000317744, -0.0242797, 0.299044, -0.038615
854.05922807399997509, -0.0145317, -0.00284064, -0.000267941, -0.0216057, 0.299522, -0.0379316
854.09254437900005996, -0.0145418, -0.00280822, -0.000134517, -0.0208367, 0.300078, -0.0356699
854.12586070800000471, -0.0144265, -0.00272037, -0.000164599, -0.0266075, 0.303618, -0.0374751
854.15917707400001291, -0.0143178, -0.00261984, -0.00027614, -0.0259018, 0.304911, -0.0388015
854.19249337899998409, -0.0144344, -0.0025783, -0.000163825, -0.02627, 0.306553, -0.0376141
854.22580971299998964, -0.0144709, -0.00264515, -7.98107e-05, -0.0237976, 0.305703, -0.0362473
854.25927607400001307, -0.014414, -0.00273346, -0.000138003, -0.0249504, 0.306034, -0.0369403
854.29259237899998425, -0.0144292, -0.00268248, -0.000141945, -0.0204828, 0.304145, -0.0357013
854.32590870299998187, -0.0144391, -0.00265545, -0.000118195, -0.0201157, 0.304287, -0.0355492
854.35922507400005088, -0.0144081, -0.00264656, -0.000229209, -0.0284721, 0.307758, -0.0379263
854.39254137399996125, -0.0144078, -0.00267865, -0.000205795, -0.0296854, 0.308262, -0.0382922
854.42585770799996681, -0.014485, -0.00272867, -0.000144795, -0.0311563, 0.309162, -0.0388685
854.45917404099998294, -0.014565, -0.00273694, -7.86711e-05, -0.0302662, 0.308817, -0.0386373
854.49249037900005987, -0.0145688, -0.00275164, -8.56979e-05, -0.0278317, 0.307608, -0.0373918
854.52580674099999669, -0.0146139, -0.00281201, -0.000135353, -0.025722, 0.30689, -0.0362013
854.55912307400001282, -0.0147187, -0.00281662, -0.000178904, -0.0248566, 0.306582, -0.0355809
854.59243987000002107, -0.0147626, -0.00297532, -0.000217847, -0.0232092, 0.307075, -0.0349056
854.62590574099999685, -0.0148655, -0.00310264, -0.00023231, -0.0218958, 0.307513, -0.0346386
854.65922207400001298, -0.0150113, -0.00316185, -0.000248797, -0.0216301, 0.307907, -0.0346063
854.69253840800001853, -0.0150849, -0.0031348, -0.000255267, -0.0232622, 0.308052, -0.0344244
854.72585474100003466, -0.0151772, -0.00311317, -0.000244381, -0.0234268, 0.307727, -0.0349653
854.75917107400005079, -0.0152011, -0.00310354, -0.000228904, -0.0245367, 0.308321, -0.035494
854.79248740800005635, -0.0151283, -0.00311928, -0.000243013, -0.0251577, 0.309847, -0.0353828
854.82580696499996975, -0.014999, -0.00311969, -0.00031151, -0.025673, 0.311571, -0.0339141
854.85912004600004366, -0.0148735, -0.00308054, -0.000368229, -0.0238517, 0.311386, -0.0344522
854.89243644600003336, -0.0148825, -0.00305523, -0.00046228, -0.021201, 0.310486, -0.035807
854.9257527409999966, -0.0147787, -0.00296241, -0.000524449, -0.0187559, 0.308481, -0.0387189
854.95921901200006232, -0.0146357, -0.00292902, -0.000528468, -0.0201799, 0.309124, -0.0384611
854.99253539300002558, -0.0146314, -0.00290796, -0.000578597, -0.0237688, 0.30974, -0.0337125
855.02584826400004658, -0.014613, -0.00287203, -0.000641027, -0.0243486, 0.309013, -0.0314593
855.05915792700000111, -0.0146634, -0.00283766, -0.000612589, -0.0240676, 0.30824, -0.0320752
855.09246803500002443, -0.0147003, -0.00278864, -0.000678131, -0.0225889, 0.306492, -0.0321428
855.12577743300005295, -0.0147779, -0.00272448, -0.000634471, -0.0199468, 0.303808, -0.0352064
855.15908723699999427, -0.0147883, -0.00268577, -0.000510328, -0.0186731, 0.302357, -0.0392989
855.1923970069999541, -0.0146684, -0.0026517, -0.000381697, -0.0208424, 0.302766, -0.0398084
855.22570677700002761, -0.0146214, -0.00263835, -0.00037024, -0.023759, 0.304095, -0.037669
855.25901651300000594, -0.0144964, -0.00262862, -0.000366013, -0.0260896, 0.305196, -0.0355674
855.2924762869999995, -0.0144442, -0.0027115, -0.000306933, -0.0238151, 0.306188, -0.0384937
855.32578605699995933, -0.0144823, -0.00287936, -0.000369675, -0.0205712, 0.306912, -0.0393641
855.35909579400004077, -0.0145112, -0.0029647, -0.000416924, -0.0153755, 0.306207, -0.0423385
855.39240934899999047, -0.0145191, -0.00301794, -0.000410928, -0.0178136, 0.307726, -0.0404461
855.42571536700006618, -0.0144877, -0.00300351, -0.000413107, -0.0207289, 0.307862, -0.0386252
855.45902513700002601, -0.0144722, -0.00296909, -0.000413398, -0.0242235, 0.307838, -0.0370968
855.49233490699998583, -0.0145241, -0.00304367, -0.000302497, -0.0241582, 0.308633, -0.0371296
855.5256446490000144, -0.0144331, -0.00310834, -0.000488005, -0.0249586, 0.308668, -0.0367143
855.55895444700001917, -0.0143738, -0.00320338, -0.000498369, -0.0222755, 0.308816, -0.0371445
855.59226418900004774, -0.0143235, -0.00327402, -0.000474227, -0.02141, 0.3088, -0.0368445
855.62557395400006044, -0.0142507, -0.00335119, -0.000521088, -0.0199569, 0.308472, -0.0377951
855.659033728000054, -0.0141743, -0.00335064, -0.000469605, -0.0190603, 0.308204, -0.0370054
855.69234344100004819, -0.014125, -0.00339078, -0.000514945, -0.0211897, 0.308091, -0.037486
855.72565326799997365, -0.0140511, -0.00331876, -0.000548698, -0.0242097, 0.309851, -0.0380289
855.75896300900001279, -0.0140244, -0.00327208, -0.000533253, -0.0276942, 0.311691, -0.0370181
855.79227275100004135, -0.0139466, -0.00315622, -0.000514925, -0.0285081, 0.314214, -0.0373097
855.82558254499997474, -0.0139217, -0.00312159, -0.000466444, -0.0245794, 0.313025, -0.0365981
855.85889234800004033, -0.0138969, -0.00321426, -0.000426113, -0.0187546, 0.308446, -0.0362927
855.89220208899996578, -0.0138222, -0.00326563, -0.000528574, -0.0161861, 0.306291, -0.0396668
855.92551185499996791, -0.013761, -0.00319204, -0.000605247, -0.0201764, 0.310004, -0.0407009
855.95882161999998061, -0.0137606, -0.00301815, -0.00060042, -0.0238894, 0.317278, -0.0395434
855.99228222199997163, -0.0136601, -0.00285056, -0.00066173, -0.0270331, 0.323901, -0.0406235
856.02559519099997942, -0.0136892, -0.00267299, -0.000622152, -0.0270636, 0.329593, -0.0398061
856.05891166499998235, -0.0136907, -0.00260306, -0.000589745, -0.0286663, 0.33366, -0.0378232
856.0922279989999879, -0.0136938, -0.00266833, -0.000637695, -0.0275109, 0.333643, -0.0382922
856.12554433200000403, -0.0137108, -0.00265696, -0.000563187, -0.0251378, 0.332569, -0.037212
856.15886066500002016, -0.0137718, -0.00267134, -0.000445031, -0.0250595, 0.332287, -0.0344933
856.19217696999999134, -0.0137378, -0.00269073, -0.000510883, -0.0291013, 0.335123, -0.0338515
856.22549333200004185, -0.0137595, -0.00274394, -0.000550828, -0.025218, 0.330638, -0.0364462
856.25880966500005798, -0.0137853, -0.00278696, -0.000516101, -0.0225485, 0.328394, -0.0371538
856.29212596499996835, -0.0138208, -0.00279048, -0.000609471, -0.0251833, 0.330513, -0.036988
856.32544230300004529, -0.0139585, -0.0027598, -0.000547675, -0.0270621, 0.332606, -0.0346781
856.35890866500005814, -0.014074, -0.00273988, -0.000500297, -0.0254379, 0.331948, -0.0351881
856.39222496499996851, -0.0141632, -0.00267463, -0.000536417, -0.0264281, 0.333977, -0.0357569
856.42554129799998464, -0.014338, -0.00262373, -0.000496791, -0.0263666, 0.33552, -0.0360715
856.458857637000051, -0.0143619, -0.00262685, -0.00048234, -0.0295099, 0.338575, -0.033713
856.49217399799999839, -0.0143496, -0.00267025, -0.000455938, -0.0274829, 0.337036, -0.0353816
856.52549030299996957, -0.0143451, -0.00270445, -0.000450671, -0.0269111, 0.336552, -0.0358274
856.55880666500002008, -0.0143212, -0.00266838, -0.000495596, -0.0338804, 0.340496, -0.0285873
856.5921229980000362, -0.0143212, -0.00266838, -0.000495596, -0.0338804, 0.340496, -0.0285873
856.62543933200004176, -0.0143688, -0.00271648, -0.000436844, -0.0285083, 0.338074, -0.0346612
856.65875566500005789, -0.0143406, -0.00278112, -0.000310656, -0.0278273, 0.338175, -0.0362237
856.69207197499997619, -0.0142584, -0.00289947, -0.000178611, -0.0267503, 0.338628, -0.0388036
856.7255382749999626, -0.0142192, -0.00293969, -0.000272811, -0.0240976, 0.336983, -0.0409557
856.75885463200006598, -0.0142121, -0.00301655, -0.000332519, -0.020944, 0.335874, -0.0441829
856.79217096499996842, -0.0142513, -0.00303757, -0.000263433, -0.0246343, 0.338068, -0.0400714
856.82548733199996605, -0.0141457, -0.00297979, -0.000341394, -0.029545, 0.339402, -0.0327851
856.85880366499998217, -0.0141167, -0.0029113, -0.000300718, -0.0328909, 0.340358, -0.0293978
856.89211994100003267, -0.0140521, -0.00294861, -0.00023419, -0.0282567, 0.338296, -0.0351785
856.9254363170000488, -0.0138363, -0.00298581, -0.000208775, -0.0283151, 0.338853, -0.0352804
856.95875266999996711, -0.0137236, -0.00299088, -0.000319297, -0.0277981, 0.338286, -0.0344054
856.99206896999999117, -0.0136127, -0.00296102, -0.000353975, -0.0271779, 0.337308, -0.0348526
857.02538533200004167, -0.0135569, -0.0029048, -0.000461153, -0.029724, 0.337888, -0.0312625
857.05885163200002808, -0.0136322, -0.0028421, -0.000350032, -0.0295215, 0.33732, -0.0326089
857.09216799399996489, -0.0136218, -0.00283815, -0.000219733, -0.028394, 0.336953, -0.0349912
857.12548433200004183, -0.0135018, -0.00283019, -0.000227167, -0.0287617, 0.336989, -0.0346846
857.15880066500005796, -0.0133266, -0.00282293, -0.000275643, -0.029221, 0.337069, -0.0338856
857.19211697000002914, -0.0131165, -0.00283881, -0.000314369, -0.0292809, 0.337135, -0.0336131
857.22543329799998446, -0.0129502, -0.00284037, -0.000353278, -0.0299059, 0.337389, -0.0326883
857.25874966499998209, -0.0127399, -0.00281577, -0.000370543, -0.030543, 0.337555, -0.0321714
857.29206597000006695, -0.0126156, -0.00276933, -0.000382925, -0.0313788, 0.337838, -0.0312727
857.32538227500003813, -0.0125276, -0.00273771, -0.000372393, -0.0302066, 0.337331, -0.0325031
857.3586986650000199, -0.0123918, -0.00268471, -0.000396214, -0.029834, 0.336959, -0.0327338
857.39216497000006711, -0.0122593, -0.00266071, -0.000376034, -0.0292006, 0.336689, -0.0336666
857.42548127500003829, -0.0120523, -0.00263306, -0.000376619, -0.0293836, 0.336738, -0.0336519
857.45879763200002799, -0.0117859, -0.00262265, -0.000405416, -0.0295814, 0.336836, -0.0333931
857.49211396500004412, -0.0115161, -0.00258404, -0.000432658, -0.0304957, 0.337117, -0.0322995
857.52543030799995449, -0.0112155, -0.00254791, -0.00045313, -0.0303491, 0.336983, -0.0324497
857.55874666500005787, -0.010869, -0.00251607, -0.000476637, -0.0301962, 0.336839, -0.032653
857.59206296499996824, -0.0104906, -0.00250142, -0.000501582, -0.02985, 0.336661, -0.0330626
857.62537930300004518, -0.0101165, -0.00246524, -0.00053098, -0.0304034, 0.336755, -0.0324826
857.658695664999982, -0.00976972, -0.00241128, -0.000547055, -0.0310304, 0.336896, -0.0318553
857.69201196500000606, -0.00940676, -0.00237171, -0.000550363, -0.0309797, 0.336817, -0.0319574
857.72532826999997724, -0.00897121, -0.00234934, -0.000563377, -0.0303489, 0.336525, -0.0326165
857.75879466499998216, -0.00859579, -0.00232155, -0.000602949, -0.0303747, 0.336399, -0.0326317
857.79211099799999829, -0.00822778, -0.00229491, -0.000617503, -0.0304008, 0.336368, -0.0326301
857.82542729800002235, -0.00785925, -0.00228247, -0.000619047, -0.030479, 0.33638, -0.0325392
857.8587436320000279, -0.00750766, -0.00227058, -0.00063489, -0.0305555, 0.3364, -0.0324943
857.89205996500004403, -0.00719662, -0.002266, -0.000634564, -0.0308421, 0.336515, -0.0322364
857.92537629800006016, -0.0069004, -0.00224426, -0.000631498, -0.031269, 0.336694, -0.0318654
857.95869263200006571, -0.00658175, -0.00218434, -0.000644462, -0.0321202, 0.337021, -0.0309992
857.99200896499996816, -0.00631401, -0.00213606, -0.000648752, -0.0315515, 0.33665, -0.0314563
858.02532529799998429, -0.00604858, -0.00212176, -0.000652422, -0.0306567, 0.336115, -0.0323106
858.05864163199998984, -0.00580572, -0.00211167, -0.000662078, -0.030825, 0.336107, -0.0321554
858.0921080030000212, -0.00555824, -0.00209702, -0.000676446, -0.0312316, 0.336277, -0.0317182
858.12542433199996594, -0.00530287, -0.00208223, -0.000684069, -0.031559, 0.336367, -0.0312288
858.15874072700000852, -0.00506449, -0.00206033, -0.000695014, -0.0317091, 0.336368, -0.0312551
858.1920569979999982, -0.00484023, -0.00202932, -0.000696675, -0.0318575, 0.336441, -0.0310493
858.22537330299996938, -0.00465023, -0.00198478, -0.000698824, -0.0320936, 0.336421, -0.0308419
858.25868966500001989, -0.0044728, -0.00194446, -0.000703263, -0.0318248, 0.33621, -0.0310487
858.29200599800003602, -0.00430897, -0.00190871, -0.000701967, -0.031543, 0.335985, -0.0310315
858.32532229800006007, -0.00417152, -0.00188203, -0.000705812, -0.031368, 0.335827, -0.0312397
858.35863863200006563, -0.00400168, -0.00188644, -0.000709529, -0.0309265, 0.335588, -0.0313622
858.39195497000002888, -0.00385558, -0.00187319, -0.000715691, -0.0315314, 0.335764, -0.030919
858.42527130300004501, -0.00371794, -0.00185236, -0.000720978, -0.0322139, 0.336191, -0.0304157
858.45873766500005786, -0.00358922, -0.00182925, -0.000722221, -0.0323861, 0.336239, -0.0303401
858.4920539979999603, -0.00348822, -0.00180469, -0.000725045, -0.032302, 0.336285, -0.0303595
858.52537030300004517, -0.00339693, -0.00179307, -0.000721947, -0.0319743, 0.336011, -0.0304363
858.55868663100000049, -0.00331144, -0.00177743, -0.000723377, -0.0320681, 0.335905, -0.0302529
858.59200299799999812, -0.00323841, -0.00177191, -0.000724452, -0.0319177, 0.335702, -0.0301929
858.62531933100001424, -0.00317212, -0.00176265, -0.000732849, -0.0319138, 0.335514, -0.0300752
858.65863563599998542, -0.0031033, -0.00175193, -0.000741629, -0.0321444, 0.335579, -0.0296841
858.69195196500004386, -0.0030453, -0.00175063, -0.000745998, -0.0320183, 0.335525, -0.029948
858.72526833100005206, -0.0029839, -0.00175236, -0.000753803, -0.0321429, 0.335673, -0.02989
858.75858463600002324, -0.0029335, -0.00175543, -0.000754881, -0.0324506, 0.335853, -0.0293119
858.79205099800003609, -0.00288372, -0.00175916, -0.000758239, -0.0323998, 0.33591, -0.0294584
858.82536733100005222, -0.00283704, -0.00177202, -0.000759822, -0.0324116, 0.335941, -0.0293853
858.85868363099996259, -0.00279734, -0.00177611, -0.00075778, -0.0326931, 0.336109, -0.0290182
858.89199999799996021, -0.00275062, -0.00178819, -0.0007623, -0.0325413, 0.33599, -0.0291673
858.92531627000005301, -0.00271215, -0.00181945, -0.000763597, -0.0320947, 0.335936, -0.0297093
858.95863263600006121, -0.00268741, -0.00185058, -0.000771325, -0.0325697, 0.336394, -0.0295872
858.99194899799999803, -0.00266125, -0.00187405, -0.000775102, -0.0329719, 0.336908, -0.0286173
859.02526527400004852, -0.00263796, -0.00187556, -0.000782577, -0.0338204, 0.337548, -0.0272564
859.05858163599998534, -0.00261346, -0.00187435, -0.000791738, -0.0334896, 0.337156, -0.0274712
859.09189796500004377, -0.00260049, -0.00188301, -0.000797029, -0.03274, 0.336599, -0.028401
859.1252142980000599, -0.00260053, -0.00189872, -0.000807415, -0.0325047, 0.336436, -0.0292413
859.15868063100003837, -0.00260685, -0.0019229, -0.000810322, -0.0326844, 0.336887, -0.0285322
859.191996998000036, -0.00260663, -0.00194989, -0.000812713, -0.0326824, 0.337115, -0.0281091
859.22531333100005213, -0.00260408, -0.0019741, -0.000821264, -0.0331696, 0.337642, -0.0279178
859.25862963600002331, -0.0026269, -0.00200828, -0.000828945, -0.0333293, 0.338189, -0.0284965
859.29194599799996013, -0.00265976, -0.00202968, -0.000835032, -0.0337432, 0.339133, -0.0278853
859.32526229799998418, -0.00269037, -0.00204544, -0.000842575, -0.03401, 0.339772, -0.0273329
859.35857866499998181, -0.00272617, -0.00205785, -0.000848888, -0.0339983, 0.340224, -0.0269149
859.3918972170000643, -0.00274811, -0.00207301, -0.000853998, -0.0338389, 0.340047, -0.0259975
859.425211298000022, -0.00275068, -0.00209435, -0.000872559, -0.0338347, 0.340544, -0.0261712
859.45852763100003813, -0.00275408, -0.002123, -0.000890484, -0.0333518, 0.340693, -0.0267771
859.4919939979999981, -0.00275907, -0.00215523, -0.000911235, -0.0333059, 0.340922, -0.02662
859.52531033100001423, -0.00275964, -0.00218672, -0.000930681, -0.0337497, 0.341295, -0.025579
859.55862663599998541, -0.00275771, -0.00222067, -0.000951855, -0.0337244, 0.341254, -0.0250755
859.59194299800003591, -0.00275531, -0.00225543, -0.000973075, -0.0335719, 0.341228, -0.0255841
859.62525933100005204, -0.00275161, -0.00229829, -0.000994036, -0.0330461, 0.341443, -0.0259241
859.65857565999999679, -0.00273434, -0.00233607, -0.00100615, -0.0329576, 0.342172, -0.0258336
859.69189199799996004, -0.00271043, -0.0023757, -0.00102246, -0.0338204, 0.343102, -0.0246328
859.72520830300004491, -0.00268667, -0.00240379, -0.00103674, -0.035089, 0.343865, -0.0230395
859.75852461199997379, -0.00266068, -0.00241771, -0.00104341, -0.0357602, 0.343916, -0.0219787
859.79184096899996348, -0.00264444, -0.00243062, -0.00105229, -0.0348082, 0.343002, -0.0231607
859.82515729800002191, -0.00262967, -0.00245415, -0.00105958, -0.0334195, 0.342339, -0.0249471
859.85862360299995544, -0.00261658, -0.0024757, -0.00106306, -0.0333983, 0.342744, -0.0250412
859.89193994100003238, -0.00260233, -0.0024856, -0.00106225, -0.0349241, 0.343847, -0.0231596
859.92525633100001414, -0.00258245, -0.00249418, -0.00106238, -0.0351794, 0.344053, -0.022342
859.95857263599998532, -0.00256197, -0.0025008, -0.00105461, -0.0347539, 0.343583, -0.0221677
859.99188896500004375, -0.00254293, -0.00250878, -0.00105086, -0.0344449, 0.343145, -0.0232776
860.02520533100005196, -0.00251771, -0.00251942, -0.00104337, -0.0341927, 0.34282, -0.0231217
860.05852181199998086, -0.00249576, -0.00252117, -0.00103469, -0.034698, 0.342853, -0.0229108
860.09183796900003927, -0.0024834, -0.0025225, -0.0010225, -0.034857, 0.342965, -0.0237944
860.12515429799998401, -0.00247932, -0.00252754, -0.0010104, -0.0345073, 0.343496, -0.0246496
860.15847063600006095, -0.00247607, -0.00253255, -0.00099625, -0.0344436, 0.344359, -0.0246359
860.19193699799996011, -0.00247308, -0.00253669, -0.00098398, -0.0348288, 0.345402, -0.0241617
860.22525329300003705, -0.00246609, -0.00254584, -0.000971094, -0.0349907, 0.346072, -0.0234963
860.2585696310000003, -0.00245788, -0.00255597, -0.000968165, -0.0349139, 0.34656, -0.0237768
860.29188596500000585, -0.00244592, -0.00256713, -0.000962423, -0.0353063, 0.346912, -0.023326
860.32520229800002198, -0.00243493, -0.00257812, -0.000958681, -0.0354818, 0.34712, -0.0232248
860.35851863100003811, -0.00242453, -0.00258739, -0.000952887, -0.035757, 0.347327, -0.0230175
860.39183494099995642, -0.0024142, -0.00259955, -0.000947769, -0.0354234, 0.347308, -0.0236099
860.4251512980000598, -0.00240185, -0.0026109, -0.000943506, -0.0352898, 0.347387, -0.0234951
860.45846763099996224, -0.00239569, -0.00261327, -0.000937774, -0.0362705, 0.348073, -0.0228337
860.49178396900003918, -0.00238818, -0.00262298, -0.000934518, -0.0357334, 0.348002, -0.0233709
860.52525030300000708, -0.00238018, -0.00263367, -0.000927965, -0.0353817, 0.347942, -0.0232559
860.5585666309999624, -0.00236837, -0.0026446, -0.000931052, -0.0355709, 0.348234, -0.0234709
860.59188296499996795, -0.00236043, -0.00265523, -0.00093051, -0.0360823, 0.34875, -0.0228343
860.62519933099997615, -0.00234999, -0.00266744, -0.000932775, -0.0359526, 0.349013, -0.0229599
860.65851563100000021, -0.00234465, -0.0026723, -0.000934437, -0.0366214, 0.349526, -0.0223955
860.69183196899996346, -0.00234292, -0.00267624, -0.000934259, -0.0364159, 0.349619, -0.0225576
860.72514830299996902, -0.00233778, -0.00268611, -0.000935943, -0.035691, 0.349407, -0.0228415
860.7584646640000301, -0.00233135, -0.0026917, -0.000938761, -0.0363175, 0.349776, -0.0221805
860.79178093600000921, -0.00232879, -0.00269434, -0.000940118, -0.0365024, 0.349968, -0.0219592
860.82509729800005971, -0.00232562, -0.00269716, -0.000941403, -0.0363533, 0.349804, -0.0220514
860.85841366399995422, -0.00232648, -0.00269627, -0.000938692, -0.0366934, 0.349926, -0.0217121
860.89187996400005431, -0.00232644, -0.00269774, -0.000936419, -0.0365554, 0.349845, -0.0219151
860.92519630300000699, -0.00232554, -0.00270073, -0.000934297, -0.0363392, 0.349872, -0.022102
860.95851266399995438, -0.00232384, -0.0027051, -0.000934388, -0.0362858, 0.350044, -0.0221387
860.99182896399997844, -0.00232459, -0.00270906, -0.000932641, -0.0365325, 0.350375, -0.0219981
861.02514533099997607, -0.00232677, -0.00271496, -0.000930655, -0.0365576, 0.350837, -0.0219168
861.0584616639999922, -0.00232686, -0.00272112, -0.000927841, -0.0364567, 0.351003, -0.0218979
861.09177799799999775, -0.00232664, -0.00272689, -0.00092457, -0.036792, 0.351395, -0.0214623
861.12509429800002181, -0.00232844, -0.00273293, -0.00092184, -0.0367247, 0.351426, -0.0215227
861.15841063599998506, -0.00233206, -0.0027375, -0.000920522, -0.036788, 0.351701, -0.0219161
861.19172696900000119, -0.00233679, -0.00274062, -0.000918908, -0.0369596, 0.351929, -0.0216732
861.22519330299996909, -0.00234087, -0.00274322, -0.000914435, -0.0371808, 0.352299, -0.0213513
861.25850966400003017, -0.00234424, -0.00274954, -0.000911597, -0.0366501, 0.352101, -0.0215645
861.29182599800003572, -0.00234299, -0.00275882, -0.000909003, -0.0364653, 0.352128, -0.0217415
861.32514229800005978, -0.00234806, -0.00275923, -0.00090915, -0.0374333, 0.352735, -0.021573
861.35845899299999928, -0.00235362, -0.00276376, -0.000908533, -0.0371163, 0.352917, -0.0218117
861.39177499799995985, -0.0023639, -0.0027617, -0.000903469, -0.037995, 0.353627, -0.0206334
861.42509133099997598, -0.00237207, -0.00275598, -0.000898015, -0.0382381, 0.353529, -0.0200104
861.45840763100000004, -0.00237392, -0.00275222, -0.000888549, -0.0372822, 0.352173, -0.0196227
861.49172396400001617, -0.00237114, -0.00275207, -0.000879509, -0.0360732, 0.350176, -0.0202703
861.52504029800002172, -0.00237487, -0.00274417, -0.000878571, -0.0371996, 0.350004, -0.0213619
861.55835663599998497, -0.00237709, -0.00273888, -0.000874622, -0.0369633, 0.34994, -0.0220054
861.59182296899996345, -0.00237568, -0.00273214, -0.000864484, -0.0375103, 0.349848, -0.0197202
861.62513933100001395, -0.00237384, -0.00272074, -0.000858407, -0.0378647, 0.349764, -0.0198109
861.65845563599998513, -0.00237043, -0.00271182, -0.000854557, -0.0370569, 0.349193, -0.0205963
861.69177199800003564, -0.00236831, -0.00270151, -0.000843252, -0.0372201, 0.348476, -0.019111
861.72508865500003594, -0.00236675, -0.00269052, -0.000844448, -0.0365358, 0.347911, -0.0220679
861.75840463600002295, -0.00236413, -0.00268784, -0.000846758, -0.0348288, 0.347571, -0.0238251
861.79172099300001264, -0.00236402, -0.00268995, -0.000850656, -0.0368948, 0.349169, -0.0222604
861.82503733099997589, -0.00236254, -0.00269296, -0.000857498, -0.0382033, 0.349712, -0.0222181
861.85835363099999995, -0.00236241, -0.00269084, -0.000856726, -0.0370114, 0.350538, -0.0227409
861.89166999799999758, -0.00236066, -0.00268409, -0.000852341, -0.0364627, 0.353013, -0.0212486
861.92513630200005537, -0.00235947, -0.00268183, -0.000847354, -0.0367516, 0.354466, -0.0186274
861.95845263600006092, -0.00235951, -0.00268047, -0.000847273, -0.0386741, 0.356627, -0.0166612
861.99176900199995544, -0.00235877, -0.00267878, -0.00085213, -0.0383147, 0.355687, -0.01914
862.02508533100001387, -0.00236074, -0.00267967, -0.000848132, -0.0376919, 0.35461, -0.0184649
862.05840163599998505, -0.00236176, -0.00268041, -0.000848922, -0.0391099, 0.355675, -0.0174436
862.09172039800000675, -0.00236232, -0.00267802, -0.000852757, -0.0387906, 0.355455, -0.0195529
862.12503430200001731, -0.00236436, -0.00267545, -0.000851217, -0.0397727, 0.357541, -0.017796
862.15835066399995412, -0.00236355, -0.00267317, -0.000855986, -0.0385016, 0.356126, -0.0214419
862.19166698300000462, -0.00236492, -0.00266891, -0.000855335, -0.0367093, 0.355833, -0.0236879
862.22498329799998373, -0.00236474, -0.00266635, -0.000856355, -0.0372494, 0.357182, -0.0229572
862.25829966399999194, -0.00236451, -0.00266407, -0.000858558, -0.0350218, 0.354739, -0.0277548
862.29176599799995984, -0.00236512, -0.00266261, -0.000855151, -0.0367628, 0.357775, -0.0235378
862.32508233099997597, -0.00236433, -0.00265787, -0.000857877, -0.0369442, 0.358715, -0.0235854
862.35839863600006083, -0.00236488, -0.00265283, -0.000854448, -0.0371901, 0.36052, -0.0226457
862.39171496400001615, -0.00236517, -0.00265068, -0.000854309, -0.0391024, 0.363866, -0.0190598
862.42503133100001378, -0.00236482, -0.00264987, -0.000858019, -0.0388416, 0.363199, -0.0194295
862.45834760200000346, -0.00236632, -0.00265164, -0.000854105, -0.0368497, 0.360131, -0.0232315
862.49166399800003546, -0.00236757, -0.00265321, -0.000850435, -0.0365709, 0.360263, -0.0241589
862.52498029800005952, -0.00236596, -0.00264875, -0.00085956, -0.0369267, 0.360361, -0.0222571
862.55829666400006772, -0.00236745, -0.00265096, -0.000854742, -0.0379397, 0.362725, -0.0211907
862.5916129690000389, -0.00236766, -0.00265405, -0.00085503, -0.0387886, 0.365191, -0.0191934
862.62507930200001738, -0.00236744, -0.00265604, -0.000856484, -0.040069, 0.368483, -0.0162221
862.65839566399995419, -0.00236813, -0.00266054, -0.000855155, -0.0410966, 0.372142, -0.0143132
862.69171196399997825, -0.0023686, -0.00266282, -0.000856332, -0.0386622, 0.367886, -0.0180273
862.72502833099997588, -0.00236847, -0.00266493, -0.000860213, -0.0376866, 0.366832, -0.0185056
862.75834466399999201, -0.00236909, -0.00266383, -0.000862672, -0.0358534, 0.362736, -0.0216064
862.79166096899996319, -0.00236981, -0.00266067, -0.000860243, -0.0381329, 0.366678, -0.0181422
862.82497733100001369, -0.00236995, -0.00265858, -0.000859629, -0.0392974, 0.368601, -0.0163057
862.85829363100003775, -0.00236983, -0.00266149, -0.000859928, -0.0417511, 0.374936, -0.0115642
862.89160999800003538, -0.0023693, -0.00266188, -0.000862945, -0.0423826, 0.376618, -0.00978716
862.9249263310000515, -0.00237113, -0.0026675, -0.000854241, -0.040417, 0.372982, -0.0143204
862.95824263099996188, -0.00237176, -0.00267472, -0.000851479, -0.0394374, 0.372148, -0.0160775
862.99170896900000116, -0.00237335, -0.0026798, -0.000845467, -0.039279, 0.373029, -0.0164775
863.02502530200001729, -0.00237201, -0.00267696, -0.000850536, -0.0409828, 0.377243, -0.0110211
863.05834163099996204, -0.00237042, -0.00267445, -0.000858036, -0.04169, 0.378467, -0.00883936
863.09165796900003897, -0.00236973, -0.00267455, -0.000860092, -0.0409343, 0.376359, -0.0118179
863.1249743020000551, -0.00237095, -0.00267577, -0.000853923, -0.0385561, 0.370994, -0.0202611
863.15829066399999192, -0.00237122, -0.00267438, -0.000850658, -0.0382956, 0.370662, -0.0207283
863.1916069689999631, -0.00237079, -0.00267388, -0.000852374, -0.0405516, 0.375363, -0.0112345
863.22492330199997923, -0.00236891, -0.00267223, -0.000859901, -0.0414126, 0.376477, -0.00983206
863.25823963599998478, -0.00236891, -0.00267505, -0.000860119, -0.0384601, 0.37076, -0.0222981
863.29155599700004586, -0.00236951, -0.00267172, -0.000855913, -0.0389579, 0.372579, -0.0185391
863.32502230199997939, -0.00236912, -0.00266777, -0.000854847, -0.0394619, 0.374186, -0.015536
863.35833863100003782, -0.00236789, -0.00266452, -0.000858674, -0.0379925, 0.373028, -0.0231808
863.39165499700004602, -0.00236719, -0.0026609, -0.000861064, -0.0384943, 0.374114, -0.0228368
863.42497133100005158, -0.00236836, -0.00266535, -0.000855826, -0.0367679, 0.372409, -0.0275314
863.45828763099996195, -0.00236869, -0.00266405, -0.000854105, -0.0359776, 0.372555, -0.0298984
863.49160396399997808, -0.00236936, -0.00266036, -0.000849603, -0.0362816, 0.374397, -0.0271547
863.52492030200005502, -0.00236881, -0.00265845, -0.000850529, -0.0367407, 0.375175, -0.0260044
863.55823663600006057, -0.00236712, -0.00265581, -0.000856083, -0.0368512, 0.37561, -0.0282733
863.59155293599997094, -0.00236445, -0.00265184, -0.000865693, -0.0381178, 0.37608, -0.0299516
863.62486931600005846, -0.00236537, -0.00264939, -0.000861786, -0.0379617, 0.37742, -0.0282593
863.65833563499995762, -0.00236759, -0.00264653, -0.000853943, -0.0369323, 0.379982, -0.025181
863.69165196400001605, -0.00236684, -0.00264747, -0.000857883, -0.0375459, 0.378577, -0.0265277
863.72496833100001368, -0.00236523, -0.00264768, -0.000865256, -0.0393912, 0.37591, -0.0290866
863.75828463100003773, -0.00236344, -0.00264416, -0.000872348, -0.0433762, 0.372589, -0.0314381
863.79160099700004594, -0.00236145, -0.00263963, -0.000879866, -0.0444258, 0.372964, -0.0346136
863.82491726900002504, -0.00236161, -0.00264111, -0.000880484, -0.0431766, 0.373908, -0.0345412
863.85823366400006762, -0.00236282, -0.00264216, -0.00087794, -0.0424426, 0.374813, -0.0327466
863.89154999699997006, -0.00236345, -0.00264273, -0.000877633, -0.041778, 0.375767, -0.0320559
863.92486633099997562, -0.00236385, -0.00264427, -0.000875994, -0.0428137, 0.372845, -0.0322105
863.95818266399999175, -0.00236497, -0.00264717, -0.000873669, -0.0427265, 0.37208, -0.031773
863.9914989640000158, -0.00236607, -0.00265129, -0.000872291, -0.0438354, 0.368692, -0.032231
864.02496530200005509, -0.00236659, -0.00264952, -0.000872513, -0.0426534, 0.371221, -0.0315933
864.05828165399998397, -0.00236687, -0.00264726, -0.000874455, -0.0410757, 0.373948, -0.0305178
864.09159799700000804, -0.00236839, -0.00265106, -0.000869181, -0.0420295, 0.373744, -0.0327077
864.12491439300004004, -0.00236821, -0.00264519, -0.000868806, -0.0427152, 0.370738, -0.0332993
864.15823063100003765, -0.00236784, -0.00264842, -0.000869177, -0.04239, 0.372666, -0.0323067
864.1915469690000009, -0.00236803, -0.0026541, -0.000867763, -0.0428998, 0.374906, -0.0326762
864.22486330200001703, -0.00236812, -0.00265215, -0.000865501, -0.0440313, 0.372005, -0.0342958
864.25817963099996177, -0.0023666, -0.00264476, -0.000870136, -0.0441181, 0.36663, -0.0306304
864.29149599699996998, -0.00236676, -0.00264252, -0.000868994, -0.0433466, 0.365577, -0.0314539
864.32481233099997553, -0.0023678, -0.00264204, -0.000863207, -0.0429366, 0.365294, -0.0366507
864.35827863500003332, -0.00236798, -0.00263577, -0.000862399, -0.0439812, 0.357785, -0.0370737
864.39159499699997014, -0.00236892, -0.00263255, -0.000858033, -0.0451418, 0.351979, -0.0412637
864.42491136399996776, -0.00236871, -0.00262987, -0.000859287, -0.0441069, 0.350384, -0.039945
864.45822766399999182, -0.00236771, -0.00262791, -0.000864196, -0.0439721, 0.349038, -0.0334802
864.49154399700000795, -0.00236751, -0.00262748, -0.00086686, -0.042937, 0.350382, -0.0300248
864.52486106399999244, -0.00236798, -0.0026289, -0.000867246, -0.0416965, 0.353957, -0.0301955
864.55817666400002963, -0.00236808, -0.00263022, -0.000867834, -0.0422061, 0.354829, -0.0286232
864.59149296900000081, -0.00236843, -0.00263205, -0.000867983, -0.0418596, 0.357583, -0.0287665
864.62480929699995613, -0.00236836, -0.00262852, -0.000870988, -0.0429615, 0.35107, -0.0214263
864.65812563099996169, -0.00236797, -0.00262942, -0.000874209, -0.0433849, 0.351612, -0.0151872
864.69144199699996989, -0.00236752, -0.00262973, -0.000877375, -0.0424028, 0.353848, -0.0125414
864.72490833100005148, -0.00236637, -0.00262621, -0.000884545, -0.0403235, 0.354058, -0.00718304
864.75822466400006761, -0.00236614, -0.00262544, -0.000887817, -0.03865, 0.356559, -0.00685671
864.79154099699997005, -0.00236597, -0.00262503, -0.000887425, -0.0383738, 0.355888, -0.0077803
864.8248573309999756, -0.00236629, -0.00262589, -0.00088751, -0.0386628, 0.356568, -0.00525439
864.85817366399999173, -0.00236678, -0.00262643, -0.000887536, -0.0390875, 0.355825, -0.00266386
864.89148999700000786, -0.00236724, -0.00262412, -0.000887593, -0.0393912, 0.350509, -0.00154596
864.92480629199997111, -0.00236724, -0.00262485, -0.000889001, -0.0390448, 0.35252, 3.88169e-05
864.95812263100003747, -0.00236669, -0.00262669, -0.000893026, -0.0394746, 0.355392, 0.00798939
864.9914389640000536, -0.00236749, -0.00263364, -0.000891758, -0.0408349, 0.363354, 0.00771902
865.02475533100005123, -0.00236846, -0.00263819, -0.000890366, -0.0406832, 0.37036, 0.00680824
865.0582216640000297, -0.00236888, -0.00264188, -0.0008922, -0.0400877, 0.377795, 0.0124225
865.09153796900000088, -0.00236879, -0.00264367, -0.00089302, -0.039831, 0.381327, 0.0144978
865.12485477300003822, -0.00236793, -0.00264342, -0.000896293, -0.0396369, 0.381608, 0.0207981
865.15817063099996176, -0.00236728, -0.00263899, -0.000899882, -0.0389859, 0.374983, 0.0282197
865.1914869350000572, -0.00236785, -0.0026368, -0.000898583, -0.0390321, 0.36855, 0.0261436
865.22480332999998609, -0.00237003, -0.00263942, -0.00089155, -0.0402914, 0.367995, 0.0130424
865.25811966399999164, -0.00237144, -0.00263774, -0.000888771, -0.0408594, 0.361985, 0.0102407
865.29143599700000777, -0.00237093, -0.00263251, -0.000892111, -0.0394026, 0.355253, 0.0189018
865.3247523300000239, -0.00237128, -0.0026319, -0.000891254, -0.0404727, 0.351699, 0.0182287
865.35806865899996865, -0.00237235, -0.00263305, -0.000889576, -0.0401661, 0.355622, 0.0144946
865.39138496900000064, -0.00237103, -0.00262823, -0.000896542, -0.0385786, 0.353771, 0.0337398
865.42485129700003199, -0.00237007, -0.00262573, -0.00090001, -0.0382275, 0.350222, 0.0430516
865.45816766400002962, -0.00236944, -0.00262699, -0.000902241, -0.0374849, 0.356927, 0.0452566
865.4914839690000008, -0.00236865, -0.00262952, -0.000905677, -0.0359784, 0.37135, 0.0507432
865.52480029699995612, -0.00236864, -0.00262667, -0.000908151, -0.0347587, 0.368152, 0.0584567
865.55811663500003306, -0.00236905, -0.0026221, -0.000910072, -0.0348833, 0.356572, 0.0680213
865.59143299699996987, -0.00236917, -0.00262006, -0.000911996, -0.0341766, 0.352259, 0.0744193
865.62474930200005474, -0.00236944, -0.00262263, -0.000913183, -0.0334154, 0.364244, 0.0770275
865.65806566399999156, -0.00236965, -0.00262269, -0.000914622, -0.0325717, 0.367916, 0.0798467
865.69138199700000769, -0.00237104, -0.00261684, -0.000914051, -0.0322388, 0.348665, 0.0849447
865.72469830199997887, -0.00237147, -0.00261354, -0.000915427, -0.0321586, 0.340417, 0.0937929
865.75816466399999172, -0.0023729, -0.00261491, -0.000911647, -0.0327503, 0.338914, 0.080869
865.7914809349999814, -0.00237457, -0.00261943, -0.000906205, -0.0342767, 0.344165, 0.0615135
865.8247972970000319, -0.00237493, -0.00261906, -0.000906404, -0.0341079, 0.343111, 0.0612801
865.85811366400002953, -0.00237548, -0.00261766, -0.000906157, -0.0355911, 0.334886, 0.0648341
865.89142996800001129, -0.00237602, -0.00261451, -0.000906773, -0.0367639, 0.323707, 0.0743842
865.92474630200001684, -0.00237562, -0.00261534, -0.000907035, -0.037023, 0.327204, 0.0760306
865.95806263500003297, -0.00237538, -0.00261791, -0.000908159, -0.0358576, 0.340553, 0.075046
865.99137899699996979, -0.00237485, -0.00261244, -0.000910682, -0.0338613, 0.32717, 0.0844884
866.02469530200005465, -0.00237514, -0.0026137, -0.000910803, -0.0327676, 0.334438, 0.0795827
866.0580116349999571, -0.00237529, -0.00261603, -0.000911512, -0.0334514, 0.342483, 0.0791296
866.0913279970000076, -0.00237505, -0.002615, -0.000912427, -0.0341548, 0.338955, 0.0836443
866.12479430200005481, -0.00237489, -0.00261419, -0.000912891, -0.0341246, 0.336637, 0.0853438
866.15811063499995726, -0.00237374, -0.00260759, -0.000917139, -0.0323384, 0.322299, 0.101322
866.19142696400001569, -0.00237223, -0.00260071, -0.000922679, -0.0288789, 0.313066, 0.121386
866.22474333000002389, -0.00237192, -0.00259921, -0.000923434, -0.0272299, 0.313009, 0.122774
866.25805963000004795, -0.00237251, -0.00260039, -0.00092169, -0.0272095, 0.313861, 0.114641
866.29137599700004557, -0.00237304, -0.00259724, -0.000919421, -0.0289276, 0.292825, 0.114201
866.3246923300000617, -0.00237335, -0.00259347, -0.000916945, -0.0303589, 0.270866, 0.116124
866.35800866400006726, -0.00237296, -0.00258968, -0.000917772, -0.0303577, 0.25681, 0.124477
866.39132494000000406, -0.00237267, -0.00258925, -0.000920973, -0.0287682, 0.25929, 0.129607
866.42464132999998583, -0.00237271, -0.00259031, -0.000922873, -0.0277669, 0.26308, 0.129153
866.4581082490000199, -0.00237245, -0.00259113, -0.000925095, -0.0274132, 0.26451, 0.132304
866.49142399200002274, -0.00237236, -0.00259126, -0.000923484, -0.0280498, 0.259541, 0.129171
866.52474032999998599, -0.00237165, -0.00259008, -0.000924941, -0.027283, 0.257373, 0.132787
866.55805666399999154, -0.00237188, -0.00259376, -0.000922402, -0.0283809, 0.264054, 0.123344
866.5913729679999733, -0.0023719, -0.00259626, -0.000920975, -0.0300469, 0.265726, 0.122453
866.6246893300000238, -0.00237197, -0.00259563, -0.000921193, -0.029417, 0.263893, 0.12263
866.65800560599996061, -0.0023717, -0.0025935, -0.000922719, -0.0281051, 0.25983, 0.126624
866.69132199700004549, -0.00237205, -0.00259545, -0.000921381, -0.0295903, 0.262716, 0.11967
866.72463833000006161, -0.00237179, -0.00259542, -0.000922516, -0.0281364, 0.269261, 0.119413
866.75795464899999843, -0.00237144, -0.00259408, -0.000923812, -0.0262725, 0.27156, 0.121219
866.79142096800001127, -0.00237159, -0.00259699, -0.000923234, -0.0282761, 0.278882, 0.12015
866.82473733000006177, -0.00237153, -0.00259622, -0.000923257, -0.0290549, 0.272485, 0.121475
866.85805367800003296, -0.00237093, -0.0025929, -0.000925773, -0.0287449, 0.261425, 0.136393
866.8913699639999777, -0.00237021, -0.00258949, -0.000929366, -0.0253414, 0.263061, 0.148468
866.92468964900001538, -0.00236951, -0.00258978, -0.000932073, -0.0227997, 0.280571, 0.151632
866.95800266399999146, -0.00236942, -0.00259015, -0.000932638, -0.0219375, 0.287898, 0.150716
866.99131896400001551, -0.00236886, -0.0025917, -0.000935109, -0.0227326, 0.298061, 0.16087
867.02463533000002371, -0.00236884, -0.00259082, -0.000935664, -0.023309, 0.291025, 0.169316
867.0579516400000557, -0.00236869, -0.00259108, -0.000936215, -0.0235327, 0.292632, 0.169322
867.09126796400005333, -0.00236848, -0.0025932, -0.000936787, -0.0235622, 0.307694, 0.16106
867.12458479200006423, -0.00236791, -0.00259535, -0.000938945, -0.023878, 0.325296, 0.162028
867.15805094400002417, -0.00236716, -0.00259629, -0.000940378, -0.0237697, 0.335934, 0.165164
867.19136696400005349, -0.00236693, -0.00259914, -0.000939053, -0.0255581, 0.340394, 0.15504
867.22468333000006169, -0.00236653, -0.00259982, -0.000939943, -0.0263582, 0.345702, 0.162948
867.25799963500003287, -0.0023666, -0.00259867, -0.000939904, -0.0258882, 0.340325, 0.173239
867.29131596399997761, -0.00236658, -0.00259726, -0.000940012, -0.0245868, 0.334605, 0.17858
867.32463232999998581, -0.00236638, -0.00259456, -0.000941754, -0.0227343, 0.32983, 0.191185
867.35794866399999137, -0.00236612, -0.00259226, -0.000943674, -0.0214176, 0.327147, 0.197965
867.39126496400001542, -0.00236589, -0.00259064, -0.000945706, -0.0201333, 0.32773, 0.207432
867.42458177299999988, -0.00236622, -0.00259109, -0.000945153, -0.0208705, 0.325396, 0.208416
867.45789766300003976, -0.00236651, -0.00259264, -0.000943883, -0.0229546, 0.323372, 0.206297
867.49136394900006053, -0.00236665, -0.00259304, -0.000943122, -0.0236107, 0.320202, 0.210637
867.52468033000002379, -0.0023666, -0.00259087, -0.000944709, -0.0219226, 0.322295, 0.223334
867.55799666300003992, -0.00236629, -0.0025875, -0.000947127, -0.0178668, 0.323431, 0.237574
867.5913129680000111, -0.0023661, -0.00258508, -0.000948472, -0.0159567, 0.323466, 0.254663
867.62462930200001665, -0.0023659, -0.00258507, -0.000951049, -0.0157359, 0.342633, 0.253586
867.65794566299996404, -0.00236627, -0.00258606, -0.000952422, -0.01698, 0.360829, 0.251842
867.6912619629999881, -0.00236699, -0.00258634, -0.000952727, -0.0170311, 0.371655, 0.25154
867.72457832999998573, -0.00236764, -0.0025866, -0.000951573, -0.0171327, 0.371138, 0.260977
867.75789463499995691, -0.00236831, -0.0025866, -0.000950721, -0.0171944, 0.368477, 0.26925
867.79121099700000741, -0.00237002, -0.00258747, -0.000949129, -0.0176495, 0.363393, 0.265981
867.82452733000002354, -0.0023709, -0.00258792, -0.00094912, -0.0172283, 0.364881, 0.259012
867.857993949000047, -0.00237153, -0.00258874, -0.000949186, -0.0167984, 0.367778, 0.252438
867.89130996300002607, -0.00237318, -0.00258945, -0.000947088, -0.0167744, 0.355166, 0.249007
867.92462629700003163, -0.00237411, -0.00258985, -0.000946401, -0.0167702, 0.350327, 0.249894
867.95794263000004776, -0.00237461, -0.00259132, -0.000945504, -0.0179946, 0.351715, 0.242422
867.99125896300006389, -0.00237592, -0.00259219, -0.000943468, -0.0191326, 0.346745, 0.242647
868.02457530200001656, -0.00237612, -0.00259254, -0.000943008, -0.0194975, 0.344642, 0.243273
868.05789165900000626, -0.00237675, -0.00259331, -0.000942601, -0.0199065, 0.342015, 0.242896
868.09120799699996951, -0.00237782, -0.00259391, -0.000942819, -0.0188222, 0.339351, 0.242007
868.12452432999998564, -0.00237839, -0.00259486, -0.00094348, -0.0186405, 0.339107, 0.23916
868.1578406300000097, -0.00237883, -0.00259585, -0.000944274, -0.0192078, 0.34465, 0.23375
868.19130699699996967, -0.00237937, -0.00259695, -0.000943677, -0.0204257, 0.346094, 0.235649
868.22462419199996475, -0.00238085, -0.00259812, -0.000942151, -0.0206009, 0.338504, 0.242437
868.25793966300000193, -0.00238077, -0.0025984, -0.000942535, -0.0194301, 0.337348, 0.246807
868.29125596300002599, -0.00238009, -0.00259884, -0.00094368, -0.0186261, 0.339061, 0.247443
868.32457233000002361, -0.00237924, -0.00259829, -0.000945834, -0.0175606, 0.347082, 0.245054
868.35788863499999479, -0.00237903, -0.00259748, -0.000946862, -0.0174238, 0.352617, 0.247788
868.3912049630000638, -0.0023792, -0.00259825, -0.00094644, -0.017539, 0.347163, 0.247712
868.42452133000006143, -0.00237905, -0.00259741, -0.000947268, -0.0171159, 0.35098, 0.250558
868.45783763500003261, -0.00237914, -0.0025972, -0.000947746, -0.0165481, 0.350609, 0.253602
868.49115393500005666, -0.00237951, -0.00259595, -0.000948081, -0.0158972, 0.356068, 0.261715
868.52447032999998555, -0.00237941, -0.00259596, -0.000947664, -0.0156155, 0.352837, 0.259422
868.55793666299996403, -0.00237973, -0.00259596, -0.000946656, -0.0154634, 0.349935, 0.26273
868.59125300100004097, -0.00238095, -0.00259679, -0.000944467, -0.0158415, 0.342166, 0.264032
868.62456932999998571, -0.00238164, -0.00259706, -0.000943302, -0.0161314, 0.337985, 0.264842
868.65788566300000184, -0.00238168, -0.00259702, -0.000945071, -0.0169586, 0.341492, 0.25568
868.69120193499998095, -0.00238186, -0.00259532, -0.000946243, -0.0171196, 0.350188, 0.25756
868.72451833000002352, -0.00238206, -0.00259551, -0.000946892, -0.0173767, 0.350994, 0.255721
868.75783463499999471, -0.00238213, -0.00259644, -0.000947708, -0.0176099, 0.350357, 0.251697
868.79115099700004521, -0.00238237, -0.00259565, -0.00094842, -0.0165612, 0.354334, 0.256272
868.82446733000006134, -0.00238297, -0.00259588, -0.000947493, -0.015855, 0.351702, 0.259876
868.85778366299996378, -0.00238295, -0.00259634, -0.000947507, -0.0158817, 0.350287, 0.258778
868.89124996300006387, -0.00238198, -0.00259474, -0.000948957, -0.0179382, 0.360344, 0.254541
868.92456629699995574, -0.00238251, -0.00259533, -0.000947677, -0.0177656, 0.355855, 0.256701
868.95788266299996394, -0.00238371, -0.00259768, -0.000944763, -0.017252, 0.344313, 0.261552
868.99119896800004881, -0.00238389, -0.00259708, -0.000944526, -0.0158199, 0.344449, 0.266201
869.02451529699999355, -0.00238373, -0.0025952, -0.000945463, -0.0142023, 0.34927, 0.269059
869.0578316349999568, -0.00238337, -0.00259271, -0.000947021, -0.0139049, 0.358245, 0.268314
869.09114797799998087, -0.00238357, -0.00259139, -0.000946939, -0.0131062, 0.361902, 0.27189
869.12446430099998906, -0.00238393, -0.00259071, -0.000945817, -0.0118135, 0.361711, 0.277603
869.15778066300003957, -0.00238468, -0.00259143, -0.000944146, -0.0122442, 0.361246, 0.282684
869.19109696800001075, -0.00238512, -0.00259175, -0.000942963, -0.0116105, 0.359136, 0.286423
869.22441330100002688, -0.00238636, -0.00259174, -0.000940245, -0.0109679, 0.357723, 0.295454
869.25787966300003973, -0.00238675, -0.00259333, -0.00093997, -0.01134, 0.354141, 0.292979
869.29119595800000297, -0.0023867, -0.00259644, -0.000940133, -0.0111877, 0.344557, 0.287017
869.32451233000006141, -0.00238648, -0.00259663, -0.00094086, -0.0108551, 0.343053, 0.285727
869.35782866299996385, -0.00238643, -0.00259642, -0.000941847, -0.0121938, 0.345599, 0.283374
869.39114499699996941, -0.00238679, -0.00259483, -0.000942361, -0.0119047, 0.349908, 0.283529
869.42446132999998554, -0.00238715, -0.00259349, -0.000942739, -0.0117115, 0.352884, 0.285086
869.45777766300000167, -0.00238712, -0.00259224, -0.000944187, -0.0130119, 0.358055, 0.28122
869.49109399700000722, -0.00238703, -0.00259101, -0.000945034, -0.0141796, 0.363212, 0.279015
869.52441033000002335, -0.00238711, -0.00258965, -0.00094578, -0.0136511, 0.366457, 0.276801
869.55772666300003948, -0.00238745, -0.00258686, -0.000946182, -0.012862, 0.372247, 0.277976
869.59119299700000738, -0.00238791, -0.0025836, -0.000945897, -0.0127094, 0.379545, 0.28173
869.6245093249999627, -0.00238753, -0.00258501, -0.000948179, -0.0155959, 0.379095, 0.274424
869.65782563499999469, -0.00238786, -0.00258868, -0.00094707, -0.0162659, 0.37158, 0.274083
869.6911419630000637, -0.00238773, -0.0025883, -0.000948048, -0.0151132, 0.371425, 0.271936
869.72445829599996614, -0.00238775, -0.0025851, -0.000948444, -0.0141659, 0.377409, 0.274166
869.75777462999997169, -0.00238815, -0.00258255, -0.000948395, -0.0145043, 0.383541, 0.275702
869.79109096800004863, -0.00238888, -0.00258294, -0.000947004, -0.0140714, 0.383212, 0.277431
869.82440730100006476, -0.00238939, -0.00258197, -0.000946812, -0.0138377, 0.385169, 0.278774
869.85772366300000158, -0.0023899, -0.00257954, -0.000946553, -0.0130526, 0.389525, 0.280362
869.89103999600001771, -0.00239047, -0.00258046, -0.000945699, -0.0134036, 0.388166, 0.280534
869.92450632999998561, -0.00239153, -0.00257942, -0.000943324, -0.0131818, 0.390559, 0.285631
869.95782263000000967, -0.00239229, -0.00257841, -0.000941307, -0.0122621, 0.39169, 0.289741
869.99113899600001787, -0.0023931, -0.00257687, -0.00093983, -0.0117532, 0.394035, 0.294083
870.02445470099996783, -0.00239412, -0.00257806, -0.000938718, -0.0125928, 0.392437, 0.295232
870.05776976799995737, -0.00239559, -0.00257512, -0.00093809, -0.0131451, 0.39783, 0.296272
870.09108484000000772, -0.00239639, -0.00257228, -0.000938654, -0.013224, 0.403444, 0.295928
870.12439997399997083, -0.00239741, -0.00256971, -0.000938115, -0.0134221, 0.408487, 0.297924
870.15771510299998681, -0.00239865, -0.00257035, -0.000936866, -0.0142201, 0.407873, 0.298203
870.19103020399995785, -0.00240097, -0.00257128, -0.00093206, -0.0137821, 0.406514, 0.303368
870.22434530500004257, -0.00240168, -0.0025734, -0.000930538, -0.0127971, 0.402799, 0.303826
870.25766037200003211, -0.00240202, -0.00257443, -0.000930345, -0.0111433, 0.399945, 0.305065
870.29112547199997607, -0.00240247, -0.00257137, -0.000929984, -0.010098, 0.404451, 0.307706
870.32444060099999206, -0.0024036, -0.00257176, -0.000929066, -0.0105148, 0.404556, 0.307149
870.3577556679999816, -0.00240496, -0.00257324, -0.000927355, -0.0101663, 0.402283, 0.307934
870.39107080200005839, -0.00240556, -0.00257221, -0.000927221, -0.00935494, 0.40369, 0.308882
870.42438587399999506, -0.00240602, -0.00257387, -0.000926232, -0.00825731, 0.40017, 0.310254
870.45770100400000047, -0.00240727, -0.00257357, -0.000923729, -0.00716464, 0.400213, 0.314986
870.49101607600005082, -0.00240799, -0.00257309, -0.000923634, -0.00780157, 0.401788, 0.316072
870.5243312050000668, -0.0024083, -0.00257349, -0.000922158, -0.00783099, 0.401244, 0.317826
870.55764624799996909, -0.00240891, -0.00257353, -0.000920118, -0.00826173, 0.402081, 0.31961
870.59096140600001945, -0.00240922, -0.00257478, -0.000920039, -0.00971248, 0.4017, 0.318443
870.62442643899998984, -0.00240971, -0.00257508, -0.000919803, -0.0107281, 0.40294, 0.318444
870.65774160199998732, -0.00241043, -0.00257514, -0.000918918, -0.0109294, 0.403387, 0.318704
870.69105666899997686, -0.0024113, -0.00257574, -0.000917581, -0.00989736, 0.402151, 0.31961
870.72437177400001929, -0.00241308, -0.0025775, -0.000914892, -0.0088519, 0.399532, 0.322516
870.7576869040000247, -0.00241344, -0.0025768, -0.000913589, -0.00793897, 0.400773, 0.325058
870.79100200400000631, -0.00241427, -0.00257673, -0.0009104, -0.0068162, 0.400938, 0.330051
870.82431710499997735, -0.00241436, -0.00257747, -0.000909588, -0.00624345, 0.400382, 0.331402
870.85763220499995896, -0.00241485, -0.00257705, -0.000908605, -0.00679892, 0.401327, 0.333424
870.89094727799999873, -0.0024155, -0.00257653, -0.000907683, -0.00797897, 0.403166, 0.335106
870.92426237300003322, -0.00241656, -0.00257637, -0.000907135, -0.00948649, 0.404289, 0.334988
870.95757747900006507, -0.00241881, -0.00257582, -0.000904979, -0.00963746, 0.405529, 0.336113
870.9910425740000619, -0.00241951, -0.00257413, -0.000904602, -0.00873868, 0.407509, 0.335596
871.02435844900003303, -0.00242078, -0.0025716, -0.000903162, -0.00836751, 0.410897, 0.337666
871.05767474100002801, -0.00242212, -0.00256792, -0.000902978, -0.00856812, 0.415416, 0.338131
871.09099107899999126, -0.002422, -0.00257123, -0.000903512, -0.00867355, 0.411382, 0.336583
871.12430744100004176, -0.00242166, -0.00257483, -0.000904411, -0.00965644, 0.407745, 0.336027
871.15762377400005789, -0.00242199, -0.00257324, -0.000903456, -0.00805013, 0.410034, 0.337712
871.19094007399996826, -0.00242249, -0.00257237, -0.000902609, -0.00692357, 0.411724, 0.338976
871.2242564120000452, -0.00242335, -0.00257226, -0.000901526, -0.00653052, 0.412531, 0.340104
871.25757277399998202, -0.0024243, -0.0025742, -0.000902182, -0.00723774, 0.410915, 0.33875
871.2908890449999717, -0.00242342, -0.00257534, -0.000903583, -0.00843291, 0.410431, 0.337802
871.32435540699998455, -0.00242334, -0.00257444, -0.000903622, -0.00829384, 0.411546, 0.337969
871.35767177399998218, -0.00242391, -0.00257394, -0.00090222, -0.00796973, 0.413083, 0.339525
871.39098810699999831, -0.00242381, -0.00257364, -0.000901897, -0.00781413, 0.41382, 0.340569
871.4243044170000303, -0.00242391, -0.00257329, -0.000901906, -0.00844501, 0.413935, 0.340322
871.45762074100002792, -0.00242442, -0.00257107, -0.000901586, -0.00942686, 0.416119, 0.340529
871.49093707400004405, -0.00242499, -0.00256794, -0.000900294, -0.00869806, 0.419669, 0.342143
871.52425344499999937, -0.00242531, -0.00256798, -0.000900497, -0.00944534, 0.420219, 0.342331
871.55756974100006573, -0.00242627, -0.00256829, -0.000899204, -0.0108592, 0.420717, 0.343639
871.59088610699996025, -0.00242824, -0.00256905, -0.00089614, -0.0110783, 0.420592, 0.346033
871.62420240699998431, -0.00242969, -0.00256903, -0.000894901, -0.0103697, 0.420826, 0.346549
871.65751907399999254, -0.00242933, -0.0025687, -0.000896329, -0.00884236, 0.421111, 0.345413
871.69098510699996041, -0.00242903, -0.00256982, -0.000897688, -0.00787765, 0.419433, 0.344328
871.72430140699998447, -0.00242925, -0.00256511, -0.000896462, -0.009026, 0.424208, 0.345832
871.75761771199995565, -0.00242882, -0.00256269, -0.000897642, -0.0102812, 0.426319, 0.345177
871.79093407900006696, -0.00242827, -0.00256351, -0.000898666, -0.0106354, 0.4254, 0.3443
871.82425040700002228, -0.00242782, -0.00256881, -0.000900757, -0.0104112, 0.419915, 0.342164
871.85756674100002783, -0.00242773, -0.00256934, -0.000899624, -0.008096, 0.419552, 0.343471
871.89088310700003603, -0.00242772, -0.00256959, -0.000899098, -0.0061603, 0.419056, 0.343519
871.92419944100004159, -0.00242884, -0.00257211, -0.000895672, -0.00689678, 0.417789, 0.346661
871.95751573999996253, -0.0024315, -0.0025729, -0.000888652, -0.00709105, 0.418463, 0.351972
871.99083210699996016, -0.00243241, -0.00257349, -0.000885702, -0.00671763, 0.418576, 0.353111
872.024298382999973, -0.00243344, -0.00257564, -0.000885245, -0.00715043, 0.417205, 0.351804
872.05761471699997855, -0.00243465, -0.00257944, -0.000883318, -0.00658602, 0.414574, 0.352869
872.09093110699996032, -0.00243516, -0.00258247, -0.000883784, -0.00724642, 0.412964, 0.352266
872.12424743999997645, -0.00243591, -0.00258627, -0.000884362, -0.00782428, 0.411137, 0.35142
872.15756371199995556, -0.00243603, -0.00258738, -0.000884719, -0.00687877, 0.410641, 0.350843
872.19088010699999813, -0.00243573, -0.00258677, -0.000884616, -0.00659708, 0.412054, 0.351156
872.22419641199996931, -0.00243566, -0.00258675, -0.000883609, -0.00691183, 0.412689, 0.352002
872.25751334000005954, -0.00243627, -0.00258565, -0.000882171, -0.00730501, 0.41425, 0.352604
872.29082907400004387, -0.00243738, -0.00258626, -0.000880528, -0.00747285, 0.41462, 0.353338
872.32414541200000713, -0.00243797, -0.00258756, -0.000879646, -0.00813325, 0.414405, 0.354054
872.35746173999996245, -0.00243818, -0.00258984, -0.000878759, -0.00842005, 0.413137, 0.355143
872.39092807400004403, -0.00243813, -0.00259084, -0.000879298, -0.00891128, 0.412077, 0.354641
872.42424444000005224, -0.00243757, -0.00259165, -0.000880772, -0.00920493, 0.411159, 0.353382
872.45756071200003134, -0.00243815, -0.00258966, -0.000879099, -0.00848058, 0.413277, 0.354643
872.49087710699996023, -0.00243917, -0.00258827, -0.000875945, -0.00830287, 0.415366, 0.356847
872.52419340699998429, -0.00243904, -0.00259164, -0.000877116, -0.00936779, 0.412264, 0.35592
872.55750977399998192, -0.00243848, -0.00259354, -0.000879127, -0.00998531, 0.41027, 0.354426
872.59082607400000597, -0.00243934, -0.00259332, -0.000876307, -0.00850419, 0.411159, 0.356264
872.62414244000001418, -0.00244069, -0.00259398, -0.000871853, -0.00654001, 0.411526, 0.35914
872.65745877400001973, -0.00244175, -0.00259227, -0.000870297, -0.00598753, 0.413143, 0.359598
872.69077510700003586, -0.00244229, -0.00259127, -0.000871297, -0.00747458, 0.413761, 0.35815
872.72424141199996939, -0.00244249, -0.00259338, -0.000870201, -0.00837651, 0.412343, 0.359249
872.75755771700005425, -0.00244261, -0.00259333, -0.000870143, -0.00826018, 0.412332, 0.359526
872.79087410700003602, -0.00244282, -0.0025912, -0.000870842, -0.00723869, 0.413724, 0.359369
872.82419044000005215, -0.00244316, -0.00258841, -0.000871584, -0.00789317, 0.415639, 0.359489
872.85750671699997838, -0.00244273, -0.00258513, -0.000874022, -0.00931464, 0.417485, 0.357639
872.89082310699996015, -0.00244234, -0.00258312, -0.000875775, -0.0103405, 0.418709, 0.356349
872.92413943999997628, -0.00244319, -0.00258379, -0.000874778, -0.0105304, 0.41865, 0.356882
872.95745574000000033, -0.00244395, -0.00258577, -0.000874431, -0.0107337, 0.417671, 0.357153
872.99077210699999796, -0.00244384, -0.00258392, -0.000875596, -0.0100396, 0.418738, 0.356343
873.02408841199996914, -0.00244441, -0.00258502, -0.000874806, -0.00868742, 0.418349, 0.356852
873.0575547450000613, -0.00244479, -0.00258518, -0.000873878, -0.00701157, 0.418349, 0.357262
873.09087110699999812, -0.00244422, -0.00258559, -0.000874944, -0.00571935, 0.418063, 0.356469
873.1241874119999693, -0.00244462, -0.00258625, -0.000873882, -0.00589039, 0.418162, 0.3575
873.15750374000003831, -0.00244367, -0.00258442, -0.000876697, -0.00699418, 0.418609, 0.356197
873.19082007800000156, -0.00244332, -0.00258501, -0.000877687, -0.00744877, 0.418055, 0.355916
873.22413641200000711, -0.00244419, -0.00258672, -0.000874789, -0.00650928, 0.417592, 0.357398
873.25745277400005762, -0.00244472, -0.0025884, -0.000874247, -0.00506308, 0.416595, 0.357838
873.29076907800003937, -0.00244469, -0.0025878, -0.000875407, -0.00457503, 0.416793, 0.357134
873.32408543999997619, -0.00244482, -0.00258842, -0.000874984, -0.00358789, 0.41656, 0.357405
873.35740177399998174, -0.00244527, -0.00258786, -0.000872846, -0.00193314, 0.417491, 0.358447
873.39071810699999787, -0.00244623, -0.0025884, -0.000868937, -0.00191215, 0.418214, 0.360509
873.42418443999997635, -0.00244676, -0.00259231, -0.000867399, -0.00310246, 0.416319, 0.361544
873.45750074500006122, -0.00244652, -0.00259348, -0.000867685, -0.00383317, 0.415619, 0.36156
873.49081858299996384, -0.00244507, -0.00259401, -0.000871123, -0.00501314, 0.414715, 0.360088
873.52413341199996921, -0.00244328, -0.00259454, -0.000877501, -0.00556525, 0.412848, 0.357202
873.55744974000003822, -0.002443, -0.00259064, -0.00088096, -0.00625049, 0.41405, 0.355239
873.59076610700003584, -0.00244438, -0.0025875, -0.000881496, -0.00685744, 0.414887, 0.354959
873.6240824070000599, -0.00244607, -0.00258568, -0.000880555, -0.00680175, 0.415373, 0.355402
873.65739873999996234, -0.00244708, -0.00258377, -0.00087821, -0.00695065, 0.41692, 0.356197
873.69071510699995997, -0.00244858, -0.00258368, -0.000874617, -0.00729836, 0.417697, 0.357957
873.7240314399999761, -0.00244904, -0.00258243, -0.0008735, -0.00760081, 0.418214, 0.358491
873.75749771200003124, -0.00245001, -0.00258023, -0.000871892, -0.00708944, 0.419341, 0.358845
873.79081407399996806, -0.00245099, -0.00257986, -0.000870734, -0.00594697, 0.419445, 0.359158
873.824130412000045, -0.00245164, -0.00258026, -0.000870016, -0.00574758, 0.419564, 0.359405
873.85744673099998181, -0.00245293, -0.00258144, -0.000867848, -0.00549058, 0.419883, 0.360347
873.89076307400000587, -0.00245443, -0.00257745, -0.000868679, -0.00609791, 0.421321, 0.359384
873.92407941199996912, -0.00245414, -0.00257722, -0.000870445, -0.0064594, 0.420982, 0.358836
873.95739574499998525, -0.00245437, -0.00257662, -0.000871376, -0.006686, 0.421092, 0.358378
873.99071210700003576, -0.00245391, -0.00257642, -0.000873788, -0.00585194, 0.420763, 0.357273
874.02402844000005189, -0.00245422, -0.00257941, -0.000871705, -0.00430652, 0.420009, 0.358248
874.05734474500002307, -0.00245529, -0.0025794, -0.000869854, -0.00391111, 0.42082, 0.358886
874.09066110699995988, -0.00245436, -0.00257817, -0.000874502, -0.00436661, 0.420331, 0.356967
874.12412744000005205, -0.002454, -0.00257961, -0.000875646, -0.00523275, 0.419489, 0.357079
874.1574437740000576, -0.00245401, -0.00257924, -0.000875695, -0.0054174, 0.419626, 0.35703
874.19076004500004728, -0.00245486, -0.00258092, -0.000872734, -0.0043201, 0.419689, 0.358097
874.22407641200004491, -0.0024563, -0.00258814, -0.000868187, -0.00466255, 0.418107, 0.36045
874.25739271199995528, -0.00245689, -0.00259084, -0.000866236, -0.00471834, 0.417314, 0.3614
874.29070904499997141, -0.00245667, -0.00259285, -0.000867212, -0.00603482, 0.416149, 0.361407
874.32402544000001399, -0.00245718, -0.0025951, -0.000864995, -0.00573317, 0.415929, 0.36245
874.35734177300003012, -0.00245829, -0.002594, -0.000861074, -0.00570785, 0.417272, 0.363403
874.39065810700003567, -0.00245935, -0.0025924, -0.000858521, -0.0060318, 0.418566, 0.363887
874.4239744400000518, -0.00245976, -0.0025913, -0.000858087, -0.00651279, 0.419178, 0.364027
874.45744074499998533, -0.00245997, -0.00259158, -0.00085765, -0.00599189, 0.419139, 0.36405
874.49075710700003583, -0.00245925, -0.00258879, -0.000860482, -0.00482226, 0.419391, 0.36278
874.52407344000005196, -0.00245904, -0.00258508, -0.000862211, -0.00476331, 0.420287, 0.361892
874.55738977300006809, -0.0024602, -0.00258391, -0.000858492, -0.00581298, 0.421489, 0.362588
874.59070606399995995, -0.00246001, -0.0025848, -0.000858371, -0.00719665, 0.421265, 0.36276
874.62402240699998401, -0.00245829, -0.00258636, -0.000863303, -0.00768075, 0.41976, 0.362096
874.65733874500006095, -0.00245796, -0.00258787, -0.000864439, -0.00628728, 0.419034, 0.361978
874.69065510699999777, -0.00245885, -0.00258814, -0.000861361, -0.00466104, 0.419612, 0.362496
874.72397140700002183, -0.0024602, -0.00258784, -0.000857598, -0.00456574, 0.4206, 0.363346
874.75728774499998508, -0.00245982, -0.00258961, -0.00085825, -0.00638383, 0.420037, 0.363841
874.79060410700003558, -0.0024593, -0.00259354, -0.00085898, -0.00744964, 0.418741, 0.364466
874.82407044000001406, -0.00245759, -0.00259354, -0.000864357, -0.0072628, 0.41747, 0.363341
874.85738674499998524, -0.00245697, -0.00259193, -0.000866931, -0.00600113, 0.417387, 0.362493
874.89070307300005425, -0.00245721, -0.00259208, -0.000867195, -0.00580221, 0.417392, 0.362527
874.92401944000005187, -0.00245689, -0.00259015, -0.00087003, -0.00546257, 0.417456, 0.361809
874.95733571599998868, -0.00245624, -0.00258801, -0.00087352, -0.00571824, 0.417333, 0.36099
874.99065210699995987, -0.00245664, -0.00258577, -0.000872655, -0.00616012, 0.417893, 0.360638
875.023968439999976, -0.00245674, -0.00258547, -0.000872391, -0.00658034, 0.417992, 0.360639
875.05728634000001875, -0.00245691, -0.0025867, -0.000872416, -0.00653642, 0.417701, 0.360851
875.09060107799996331, -0.00245799, -0.00259082, -0.000869977, -0.00667273, 0.41735, 0.362015
875.12391744000001381, -0.00245982, -0.00259298, -0.000866406, -0.00635362, 0.417696, 0.363034
875.15738374500006103, -0.00246082, -0.00259187, -0.000865059, -0.00584951, 0.41827, 0.363104
875.19070010699999784, -0.00245987, -0.00258849, -0.000869643, -0.00531768, 0.417967, 0.361866
875.22401638300004834, -0.00245961, -0.00258971, -0.000869651, -0.00464941, 0.417799, 0.361991
875.2573327730000301, -0.00246105, -0.00259139, -0.000864884, -0.00448113, 0.418445, 0.362845
875.29064907800000128, -0.00246033, -0.00259188, -0.000866559, -0.0052578, 0.417981, 0.362811
875.32396887300001254, -0.00245928, -0.00259192, -0.000869318, -0.00564641, 0.417455, 0.36256
875.35728173999996216, -0.00245866, -0.00259117, -0.00087192, -0.00592851, 0.41709, 0.36223
875.39059810699995978, -0.00245998, -0.00259314, -0.000867168, -0.00498313, 0.417779, 0.362937
875.42391443999997591, -0.00246107, -0.0025917, -0.000864323, -0.00402178, 0.418621, 0.362815
875.45723074500006078, -0.00246076, -0.00258889, -0.000866154, -0.00493989, 0.418607, 0.362236
875.4905470730000161, -0.0024591, -0.00258657, -0.000871752, -0.00649155, 0.417734, 0.361556
875.524013406999984, -0.00246001, -0.00258315, -0.000871136, -0.00712454, 0.418353, 0.361145
875.55733031099998698, -0.00246105, -0.00258165, -0.000869198, -0.00667946, 0.419008, 0.360974
875.59064610699999776, -0.00246217, -0.00258201, -0.000865783, -0.00529451, 0.419641, 0.360971
875.62396244000001388, -0.00246224, -0.00258215, -0.000866452, -0.005706, 0.419486, 0.361055
875.65727871600006438, -0.00246203, -0.00258259, -0.00086808, -0.00668445, 0.419046, 0.361205
875.69059507800000119, -0.00246415, -0.00258389, -0.000863109, -0.0058269, 0.419879, 0.361473
875.72391141100001732, -0.00246575, -0.0025826, -0.000861275, -0.00617087, 0.420284, 0.36136
875.75722777300006783, -0.00246653, -0.00258349, -0.000860175, -0.00689779, 0.420276, 0.361632
875.79054410699995969, -0.00246707, -0.00258584, -0.000858068, -0.00727264, 0.420385, 0.36214
875.82386040699998375, -0.00246779, -0.00258815, -0.000856499, -0.00720149, 0.420448, 0.362582
875.85732671599998866, -0.00246835, -0.00258596, -0.000858829, -0.00714762, 0.420183, 0.362212
875.89064307299997836, -0.00246837, -0.00258736, -0.000860634, -0.00683837, 0.419697, 0.362388
875.9239594110000553, -0.00246858, -0.00259037, -0.000860897, -0.00674164, 0.419375, 0.362928
875.95727577299999211, -0.00246914, -0.00259128, -0.000858795, -0.00721789, 0.419676, 0.363201
875.99059210699999767, -0.0024681, -0.00259098, -0.000861832, -0.00828608, 0.419156, 0.363425
876.02390840700002173, -0.00246623, -0.00258779, -0.000868145, -0.00811454, 0.418096, 0.362884
876.05722550200005116, -0.0024657, -0.0025884, -0.000869747, -0.00660729, 0.417799, 0.362639
876.09054104500000903, -0.0024662, -0.00259201, -0.000867544, -0.00519889, 0.418072, 0.362858
876.12385741100001724, -0.00246691, -0.00259107, -0.000867068, -0.00539863, 0.418167, 0.362737
876.15717373999996198, -0.00246868, -0.00259127, -0.000863054, -0.00528174, 0.418804, 0.362638
876.19064167800001997, -0.00246989, -0.00258901, -0.000860142, -0.00526251, 0.419294, 0.362127
876.22395644000005177, -0.00246987, -0.00258587, -0.000861369, -0.00524867, 0.418963, 0.361614
876.25727273999996214, -0.00246826, -0.00258349, -0.000866152, -0.00553789, 0.418116, 0.361501
876.29058910699995977, -0.00246722, -0.00258076, -0.000869974, -0.00553961, 0.417499, 0.361191
876.3239054399999759, -0.00246757, -0.00257936, -0.000869745, -0.0048027, 0.417699, 0.360697
876.35722177299999203, -0.00246722, -0.00258081, -0.000870836, -0.00420724, 0.417658, 0.360857
876.39053811099995528, -0.00246708, -0.00258235, -0.000871265, -0.00349673, 0.417687, 0.361049
876.42385444900003222, -0.00246768, -0.00258409, -0.000869285, -0.00262462, 0.418075, 0.361
876.45717077799997696, -0.00246783, -0.0025845, -0.000868672, -0.00336638, 0.418031, 0.361233
876.49048710600004597, -0.00246785, -0.0025873, -0.000868666, -0.00454088, 0.41804, 0.362031
876.52380344000005152, -0.00246806, -0.0025841, -0.000869707, -0.00555151, 0.417568, 0.361768
876.55726977300003, -0.00246843, -0.00258275, -0.000870061, -0.00669387, 0.417273, 0.361765
876.59058604500000911, -0.00246744, -0.00258269, -0.000872964, -0.00757168, 0.416723, 0.362246
876.62390241100001731, -0.00246606, -0.00258249, -0.000876801, -0.00793021, 0.416019, 0.362832
876.65721874500002286, -0.00246708, -0.00258536, -0.000875147, -0.00679269, 0.416602, 0.36286
876.69053510599997026, -0.00246845, -0.00258935, -0.000870558, -0.00618298, 0.417737, 0.362776
876.72385140599999431, -0.00246874, -0.00258914, -0.000871261, -0.00711693, 0.417461, 0.362964
876.75716777299999194, -0.00246729, -0.00258756, -0.00087578, -0.007996, 0.416458, 0.363583
876.79048407799996312, -0.00246726, -0.00259017, -0.000876159, -0.00741438, 0.416707, 0.363896
876.82380040600003213, -0.00246742, -0.00259493, -0.000874816, -0.00688719, 0.41755, 0.364439
876.8571167449999848, -0.00246741, -0.0025979, -0.000873222, -0.00606506, 0.418313, 0.3647
876.89058310600000823, -0.0024679, -0.00259838, -0.000871708, -0.0059476, 0.418596, 0.364527
876.92389944000001378, -0.00246819, -0.00259695, -0.000871632, -0.00653735, 0.418244, 0.364407
876.95721574499998496, -0.00246811, -0.00259485, -0.000873028, -0.00696387, 0.41757, 0.364428
876.99053207300005397, -0.00246819, -0.0025937, -0.000873336, -0.00684779, 0.417361, 0.3642
877.02384843499999079, -0.00247026, -0.00259069, -0.000869571, -0.0059267, 0.417517, 0.362345
877.05716477300006773, -0.00247165, -0.00258755, -0.00086842, -0.00551649, 0.41703, 0.361287
877.09048110599997017, -0.00247166, -0.00258453, -0.000868939, -0.0065249, 0.41602, 0.36107
877.12379743999997572, -0.00247167, -0.00258289, -0.00086916, -0.00678096, 0.415497, 0.36081
877.15711377299999185, -0.0024723, -0.0025837, -0.000868452, -0.00598596, 0.415776, 0.360428
877.19043010600000798, -0.00247266, -0.00258366, -0.000868992, -0.0059249, 0.415527, 0.360532
877.2237463830000479, -0.00247299, -0.00258468, -0.000868255, -0.00649866, 0.415756, 0.360582
877.25721277299999201, -0.00247424, -0.00258313, -0.000868278, -0.00709434, 0.415268, 0.360701
877.29052910600000814, -0.00247592, -0.00258299, -0.000866434, -0.00720324, 0.415451, 0.360393
877.3238454060000322, -0.00247579, -0.00257993, -0.000868285, -0.00619393, 0.414506, 0.360147
877.35716177300002983, -0.00247679, -0.00257577, -0.00086824, -0.00637099, 0.41317, 0.359323
877.39047810600004595, -0.00247791, -0.00257709, -0.000864453, -0.00833811, 0.41373, 0.35892
877.42379441100001713, -0.00247648, -0.00257645, -0.000867544, -0.00880637, 0.413062, 0.359927
877.45711073500001476, -0.0024753, -0.00257648, -0.000870793, -0.00828238, 0.412792, 0.361016
877.49042707299997801, -0.00247524, -0.00257548, -0.000870675, -0.00751318, 0.412544, 0.360411
877.52374343999997564, -0.00247482, -0.00257801, -0.000871099, -0.00632591, 0.413514, 0.360603
877.55705977299999176, -0.00247532, -0.00257913, -0.000870403, -0.00537503, 0.414004, 0.360162
877.59052610599997024, -0.00247763, -0.00257879, -0.00086802, -0.00510778, 0.413791, 0.359594
877.62384241100005511, -0.00247977, -0.00257929, -0.000867266, -0.00465453, 0.413756, 0.360087
877.65715873999999985, -0.0024796, -0.00258067, -0.000868614, -0.00481752, 0.413843, 0.360971
877.69047510600000805, -0.00248046, -0.0025781, -0.000869347, -0.00533208, 0.412637, 0.360724
877.72379138200005855, -0.00248095, -0.00257405, -0.000871615, -0.0062451, 0.41067, 0.361228
877.75710955400006696, -0.00248143, -0.00257171, -0.000872464, -0.00634108, 0.409682, 0.36122
877.79042410600004587, -0.00248223, -0.00257079, -0.000871851, -0.00518894, 0.409592, 0.360002
877.82374038199998267, -0.00248284, -0.00257195, -0.000870349, -0.00424746, 0.410305, 0.358957
877.85705673999996179, -0.00248382, -0.00257191, -0.000867899, -0.00412442, 0.41048, 0.357595
877.89037307299997792, -0.00248361, -0.00257068, -0.000868692, -0.00523903, 0.409713, 0.35797
877.92368996799996239, -0.00248327, -0.00257094, -0.000869749, -0.00566571, 0.40961, 0.358466
877.95715577300006771, -0.00248245, -0.00256768, -0.000872918, -0.00652487, 0.407795, 0.359103
877.99047207299997808, -0.00248234, -0.00256532, -0.000874511, -0.00691696, 0.406588, 0.35913
878.02378841100005502, -0.0024811, -0.00256629, -0.000879034, -0.00539877, 0.406541, 0.360784
878.05710474399995746, -0.00248145, -0.00256972, -0.000876657, -0.00482916, 0.408269, 0.360094
878.09042107799996302, -0.00248199, -0.0025747, -0.000874353, -0.00519274, 0.410462, 0.360037
878.12373741099997915, -0.00248175, -0.00257288, -0.000875693, -0.00654823, 0.409156, 0.360626
878.15705377300002965, -0.00248109, -0.0025694, -0.000879095, -0.00793053, 0.406959, 0.361707
878.19037007300005371, -0.00248109, -0.00256998, -0.000878747, -0.00702464, 0.407527, 0.361539
878.22368641100001696, -0.00248139, -0.00257072, -0.000877227, -0.00597722, 0.408301, 0.360842
878.25700277300006746, -0.00248185, -0.00257259, -0.000875065, -0.00458296, 0.409784, 0.360081
878.29046910600004594, -0.00248258, -0.00257337, -0.000872791, -0.00530193, 0.410143, 0.359325
878.32378750099996978, -0.00248403, -0.00257189, -0.000869159, -0.00621615, 0.409451, 0.357365
878.35710177300006762, -0.00248498, -0.00257302, -0.000865764, -0.00666367, 0.410205, 0.355764
878.39041810599997007, -0.00248553, -0.00257553, -0.00086335, -0.00670344, 0.41175, 0.354897
878.42373438200002056, -0.00248596, -0.00257792, -0.000861413, -0.00683487, 0.413096, 0.354404
878.45705077299999175, -0.0024859, -0.00257943, -0.000860934, -0.00711461, 0.41383, 0.35459
878.49036705399998937, -0.00248551, -0.00257936, -0.000861863, -0.00699737, 0.413695, 0.355136
878.52368344000001343, -0.00248552, -0.00258019, -0.000861519, -0.00656288, 0.414383, 0.354851
878.55699974000003749, -0.00248503, -0.00257928, -0.00086279, -0.00612317, 0.413844, 0.355585
878.59031607800000074, -0.00248445, -0.00257676, -0.000865366, -0.00614494, 0.41215, 0.356495
878.62363282000001163, -0.00248439, -0.00257916, -0.0008647, -0.00605026, 0.413675, 0.356464
878.65709873900004823, -0.00248352, -0.00257939, -0.000867446, -0.00547852, 0.41386, 0.358173
878.6904150780000009, -0.00248352, -0.00257755, -0.000867647, -0.00665156, 0.412239, 0.358422
878.72373138700004347, -0.00248321, -0.00257483, -0.000869672, -0.00697709, 0.410272, 0.359432
878.75704771100004109, -0.00248374, -0.00257698, -0.000867889, -0.0065812, 0.411855, 0.358445
878.79036407800003872, -0.00248418, -0.00258285, -0.000866128, -0.00667009, 0.41585, 0.358528
878.82368041100005485, -0.00248352, -0.00258134, -0.00086868, -0.00643007, 0.41487, 0.36003
878.85699672999999166, -0.00248291, -0.0025789, -0.00087142, -0.00649857, 0.413135, 0.36153
878.89031307300001572, -0.00248266, -0.00257763, -0.000873295, -0.00470324, 0.412845, 0.361729
878.92362943900002392, -0.00248249, -0.00257888, -0.000873236, -0.00312589, 0.414021, 0.361679
878.95694577300002948, -0.00248184, -0.00257797, -0.000875918, -0.00452795, 0.412953, 0.363471
878.99041207300001588, -0.00248246, -0.00257496, -0.000875849, -0.00583378, 0.410307, 0.363737
879.02372840600003201, -0.00248366, -0.00257301, -0.000874059, -0.00516167, 0.40917, 0.363008
879.05704474399999526, -0.00248398, -0.00257198, -0.000874731, -0.00501008, 0.408737, 0.363602
879.09036107800000082, -0.00248403, -0.00257062, -0.000876231, -0.0050816, 0.407861, 0.364106
879.12367737800002487, -0.00248498, -0.00256894, -0.000876987, -0.00538283, 0.406934, 0.364095
879.15699373899997227, -0.00248595, -0.00256661, -0.000880173, -0.00535228, 0.405999, 0.365171
879.19031010599996989, -0.00248601, -0.00256564, -0.000882718, -0.00520105, 0.405622, 0.366874
879.22362643899998602, -0.0024861, -0.00256589, -0.000884597, -0.00491962, 0.406042, 0.367846
879.25694273900001008, -0.00248816, -0.00256613, -0.000882777, -0.00499082, 0.406323, 0.366612
879.29025910600000771, -0.00248832, -0.00256686, -0.000882447, -0.00502895, 0.407204, 0.366586
879.32372543899998618, -0.00248938, -0.00256747, -0.000880628, -0.00577697, 0.407635, 0.365508
879.35704177299999174, -0.00249171, -0.00256826, -0.000877135, -0.00551008, 0.408405, 0.363119
879.39035807699997349, -0.00249262, -0.00256794, -0.0008762, -0.0048238, 0.408092, 0.362317
879.42367443900002399, -0.00249348, -0.00257012, -0.000874094, -0.00440984, 0.409897, 0.361006
879.45699078699999518, -0.0024948, -0.00257124, -0.000872351, -0.00585845, 0.409941, 0.359642
879.4903070770000113, -0.00249427, -0.00257202, -0.000874181, -0.00721914, 0.409663, 0.361057
879.52362340599995605, -0.00249411, -0.00257248, -0.000875523, -0.0082138, 0.409453, 0.362178
879.55693971100004092, -0.00249448, -0.00257381, -0.000875945, -0.00722003, 0.410672, 0.362723
879.5902561059999698, -0.0024952, -0.00257461, -0.000875048, -0.00646103, 0.411056, 0.361696
879.62357240599999386, -0.00249645, -0.00257526, -0.000874283, -0.00564988, 0.411327, 0.36094
879.65688877299999149, -0.00249753, -0.00257546, -0.00087463, -0.00665039, 0.410424, 0.361468
879.69035507299997789, -0.00249846, -0.00257489, -0.000875483, -0.00665631, 0.409054, 0.36219
879.72367140599999402, -0.00249901, -0.00257609, -0.000876086, -0.00646909, 0.408968, 0.3621
879.75698774399995727, -0.00249923, -0.00257773, -0.000876786, -0.00617559, 0.409714, 0.362205
879.79030410600000778, -0.00249935, -0.00257885, -0.000878176, -0.00615934, 0.410583, 0.363562
879.82362041099997896, -0.00250012, -0.00257953, -0.000878712, -0.00662108, 0.411038, 0.36439
879.85693674399999509, -0.00250158, -0.00257972, -0.000878007, -0.00677385, 0.410263, 0.364302
879.89025310600004559, -0.00250254, -0.00258103, -0.000877589, -0.00712216, 0.41043, 0.363822
879.92356940599995596, -0.00250372, -0.00258213, -0.000875832, -0.00696607, 0.411421, 0.361924
879.95688577300006727, -0.00250462, -0.00258193, -0.000875548, -0.00694675, 0.411183, 0.361521
879.99020207299997764, -0.00250541, -0.00258098, -0.00087532, -0.00633254, 0.409715, 0.362115
880.02366843900006188, -0.00250569, -0.00258108, -0.000875726, -0.00519985, 0.409471, 0.361619
880.05698477300006743, -0.00250545, -0.00258137, -0.000876128, -0.00478324, 0.410169, 0.362128
880.09030107299997781, -0.00250493, -0.00258294, -0.000876062, -0.00545036, 0.412678, 0.361954
880.12361740599999393, -0.00250519, -0.00258291, -0.000875583, -0.0073142, 0.411374, 0.362065
880.15693373500005237, -0.00250519, -0.00258291, -0.000875583, -0.0073142, 0.411374, 0.362065
880.19025007300001562, -0.00250551, -0.00258116, -0.000876107, -0.0067378, 0.407648, 0.363709
880.22356641099997887, -0.00250523, -0.00258084, -0.000876866, -0.00511399, 0.408707, 0.364569
880.25688277300002937, -0.00250498, -0.00258057, -0.000877361, -0.00374249, 0.409865, 0.365079
880.2901991060000455, -0.00250449, -0.00258085, -0.000877914, -0.0041741, 0.410445, 0.366134
880.32351541100001668, -0.00250417, -0.00258052, -0.000877828, -0.00485138, 0.409971, 0.367613
880.35683174400003281, -0.00250405, -0.00258034, -0.000877277, -0.00451991, 0.409549, 0.36825
880.39029807300005359, -0.00250421, -0.00258044, -0.000877365, -0.00441299, 0.408694, 0.36934
880.42361443900006179, -0.00250422, -0.0025803, -0.000877748, -0.00521335, 0.406321, 0.369285
880.4569307110000409, -0.00250466, -0.00257971, -0.000877431, -0.00547009, 0.404312, 0.370067
880.49024707299997772, -0.0025048, -0.00257957, -0.000877152, -0.00526494, 0.404069, 0.370794
880.52356343899998592, -0.00250507, -0.00257944, -0.000877077, -0.00447571, 0.404291, 0.370576
880.55687977700006286, -0.00250564, -0.00257921, -0.000876436, -0.00395583, 0.403444, 0.369373
880.5901961060000076, -0.00250633, -0.00257928, -0.000875297, -0.00411639, 0.401896, 0.368366
880.62351240600003166, -0.00250649, -0.00257941, -0.000875022, -0.00417463, 0.400986, 0.367832
880.65682885800003987, -0.00250652, -0.00257979, -0.000875231, -0.00482944, 0.399142, 0.367455
880.69014507300005334, -0.00250697, -0.0025801, -0.000874238, -0.00534668, 0.399263, 0.368029
880.72361141099997894, -0.00250713, -0.00258033, -0.000873693, -0.00514757, 0.399438, 0.367872
880.75692802000003212, -0.00250692, -0.00258016, -0.000873844, -0.00474769, 0.399299, 0.368138
880.7902440730000535, -0.00250719, -0.00258008, -0.000873833, -0.00468283, 0.398818, 0.369189
880.82356041100001676, -0.00250788, -0.00258003, -0.000873135, -0.00465236, 0.398804, 0.370146
880.85687674400003289, -0.00250841, -0.00258093, -0.000872371, -0.00595303, 0.396765, 0.369721
880.8901931059999697, -0.0025084, -0.00258097, -0.000872392, -0.00605583, 0.397244, 0.369287
880.92350948199998584, -0.00250836, -0.00258079, -0.000872423, -0.00558558, 0.397897, 0.368992
880.95682577700006277, -0.00250854, -0.0025805, -0.000872687, -0.00506489, 0.398673, 0.366948
880.99014207200002602, -0.00250853, -0.00258038, -0.000873099, -0.00544785, 0.400925, 0.365745
881.02345840600003157, -0.00250844, -0.00258021, -0.000873378, -0.00574192, 0.403, 0.364195
881.0567747390000477, -0.00250832, -0.00258045, -0.000873693, -0.00638263, 0.403537, 0.362968
881.09024110600000768, -0.00250856, -0.00258021, -0.000873341, -0.00576533, 0.403639, 0.36369
881.12355740600003173, -0.00250853, -0.00258002, -0.000873883, -0.00521959, 0.403146, 0.363625
881.15687378699999499, -0.00250885, -0.00258018, -0.000874044, -0.00522672, 0.403508, 0.363299
881.19019007700001112, -0.00250965, -0.00258004, -0.000873204, -0.0049219, 0.404895, 0.364042
881.22350641100001667, -0.00251036, -0.0025802, -0.000871955, -0.00467205, 0.404972, 0.365392
881.2568227440000328, -0.00251053, -0.0025807, -0.000871964, -0.00495328, 0.404207, 0.365007
881.29013908700005686, -0.00251067, -0.00258078, -0.000872834, -0.00515253, 0.404358, 0.363718
881.32345543899998574, -0.00251152, -0.00258116, -0.000872015, -0.00520068, 0.404371, 0.363995
881.35677177200000187, -0.00251188, -0.00258089, -0.000872355, -0.00532247, 0.406309, 0.362032
881.39008810600000743, -0.00251195, -0.00258094, -0.000873106, -0.00545955, 0.40752, 0.359601
881.42355440599999383, -0.00251204, -0.00258066, -0.000873009, -0.00467938, 0.407069, 0.35918
881.45687077200000203, -0.00251245, -0.0025802, -0.000872729, -0.00491082, 0.408063, 0.360149
881.49018707699997321, -0.00251211, -0.00258015, -0.000873547, -0.00630697, 0.408889, 0.359275
881.52350340600003165, -0.00251276, -0.00258114, -0.000872229, -0.00667501, 0.407387, 0.359887
881.55681973900004778, -0.00251317, -0.00258129, -0.00087112, -0.00598994, 0.406447, 0.360234
881.59013604400001896, -0.00251313, -0.0025813, -0.000871171, -0.00490488, 0.405906, 0.360714
881.62345243900006153, -0.0025134, -0.00258116, -0.000870594, -0.00373924, 0.405735, 0.36202
881.65676871499999834, -0.00251394, -0.00258021, -0.000870295, -0.00329578, 0.407232, 0.363173
881.69008507700004884, -0.00251462, -0.0025802, -0.000869833, -0.00445211, 0.407873, 0.363613
881.72340140100004646, -0.00251548, -0.00257933, -0.000869038, -0.00454798, 0.409413, 0.364038
881.75671777200000179, -0.00251602, -0.00257869, -0.000868413, -0.00401258, 0.410318, 0.364626
881.79018410599996969, -0.00251683, -0.0025793, -0.000867672, -0.00440173, 0.409661, 0.364697
881.82350043899998582, -0.0025173, -0.00258035, -0.000867157, -0.00538734, 0.408788, 0.365138
881.85681677200000195, -0.00251815, -0.00258181, -0.000866014, -0.00563892, 0.406839, 0.36634
881.890133072000026, -0.00251821, -0.00258088, -0.000866347, -0.00516148, 0.407738, 0.366648
881.92344943900002363, -0.00251815, -0.00258066, -0.000866148, -0.0043824, 0.408172, 0.367133
881.95676573900004769, -0.00251847, -0.00258083, -0.000866103, -0.00391617, 0.408014, 0.366931
881.99008210600004531, -0.00251834, -0.00257988, -0.000866945, -0.00471885, 0.40944, 0.365818
882.02339838199998212, -0.00251816, -0.0025797, -0.000867828, -0.00562546, 0.41033, 0.364926
882.05671477199996389, -0.00251832, -0.00257932, -0.000868476, -0.00658808, 0.411211, 0.363482
882.09003104400005668, -0.00251855, -0.00257915, -0.000868681, -0.00643187, 0.411502, 0.362463
882.1234974390000616, -0.0025186, -0.00257987, -0.000869447, -0.00637372, 0.410263, 0.361403
882.15681377199996405, -0.00251875, -0.00258094, -0.000868984, -0.00573935, 0.409042, 0.361678
882.1901300719999881, -0.00251842, -0.00258014, -0.000868399, -0.00495871, 0.40997, 0.362537
882.22344643899998573, -0.00251842, -0.0025793, -0.000867952, -0.00526994, 0.410852, 0.363432
882.25676277200000186, -0.00251854, -0.00258023, -0.000869134, -0.00594351, 0.409512, 0.362163
882.29007907699997304, -0.00251889, -0.00258021, -0.000869802, -0.00565028, 0.40919, 0.361281
882.32339540999998917, -0.00251981, -0.00257971, -0.0008675, -0.00431548, 0.409521, 0.362694
882.35671177200003967, -0.00251996, -0.00257918, -0.000866452, -0.00370819, 0.410413, 0.363666
882.39002811000000293, -0.00251998, -0.00257802, -0.000867276, -0.00400087, 0.411599, 0.363196
882.42334443900006136, -0.00252056, -0.00257761, -0.000865538, -0.00491645, 0.412223, 0.365306
882.45681074399999488, -0.00252109, -0.00257772, -0.000864373, -0.00553684, 0.412684, 0.366526
882.49012707200006389, -0.00252261, -0.00257781, -0.000862752, -0.00527119, 0.413421, 0.367947
882.52344341000002714, -0.00252398, -0.00257747, -0.000861029, -0.00500846, 0.414644, 0.369609
882.5567597440000327, -0.00252502, -0.00257741, -0.000859282, -0.00489242, 0.415611, 0.371167
882.59007610599996951, -0.00252554, -0.00257756, -0.000859199, -0.00517159, 0.415219, 0.370708
882.62339239100003851, -0.00252678, -0.00257929, -0.000858775, -0.00551584, 0.413839, 0.370921
882.65670877200000177, -0.00252776, -0.00258162, -0.000858318, -0.00592626, 0.412662, 0.37168
882.69002507699997295, -0.00252941, -0.00258348, -0.000858381, -0.00643788, 0.411826, 0.371445
882.72334140999998908, -0.00253059, -0.00258539, -0.000857367, -0.00625791, 0.410705, 0.371847
882.75665777200003959, -0.0025306, -0.00258558, -0.000857201, -0.00580285, 0.411021, 0.371699
882.78997410600004514, -0.00253066, -0.00258551, -0.000857391, -0.00452526, 0.411291, 0.371331
882.82344043900002362, -0.00253069, -0.00258789, -0.000857834, -0.00364301, 0.409448, 0.371104
882.8567567439999948, -0.00253049, -0.00258609, -0.000859108, -0.00498543, 0.410518, 0.370675
882.8900731060000453, -0.00252945, -0.0025871, -0.000860547, -0.00541672, 0.409657, 0.37002
882.92338943900006143, -0.00252948, -0.00258745, -0.000861137, -0.00545108, 0.409249, 0.369647
882.9567057389999718, -0.00252971, -0.00258841, -0.000861406, -0.00510032, 0.408769, 0.369082
882.99002212499999587, -0.0025291, -0.00258778, -0.000863028, -0.00484452, 0.409048, 0.368092
883.02333841000006487, -0.00252892, -0.00258606, -0.000864734, -0.00422694, 0.41026, 0.366786
883.05665477200000169, -0.00252947, -0.00258544, -0.000864534, -0.00415934, 0.410611, 0.366525
883.08997110600000724, -0.00253001, -0.00258592, -0.000864194, -0.00438948, 0.410148, 0.366403
883.12328743900002337, -0.00253059, -0.00258627, -0.000863275, -0.00439067, 0.410017, 0.366451
883.15675377200000185, -0.00253093, -0.00258633, -0.000864025, -0.00455235, 0.40975, 0.365488
883.19007010500001797, -0.00253155, -0.00258552, -0.000863965, -0.00520352, 0.410334, 0.365188
883.22338643900002353, -0.0025325, -0.00258614, -0.000863688, -0.00551502, 0.410004, 0.365015
883.25670274399999471, -0.00253248, -0.00258876, -0.00086415, -0.00539736, 0.408312, 0.364694
883.29001904400001877, -0.00253242, -0.00258982, -0.00086374, -0.00466314, 0.407744, 0.364859
883.32333543900006134, -0.00253267, -0.00258903, -0.000863591, -0.00408303, 0.408072, 0.364798
883.35665173899997171, -0.00253283, -0.00258928, -0.000863097, -0.00403864, 0.408, 0.365086
883.38996810499997991, -0.00253364, -0.00259029, -0.000862617, -0.00434764, 0.407535, 0.365378
883.42328443899998547, -0.00253503, -0.00259027, -0.000860908, -0.00492506, 0.407875, 0.365687
883.45660073900000953, -0.00253612, -0.0025887, -0.000860287, -0.00522798, 0.408768, 0.365602
883.48991707699997278, -0.00253653, -0.0025889, -0.00085971, -0.00487156, 0.40881, 0.365623
883.52338343899998563, -0.00253707, -0.0025887, -0.000857901, -0.00372439, 0.409171, 0.366315
883.55669977200000176, -0.00253687, -0.00258761, -0.000857825, -0.00335343, 0.409605, 0.366363
883.59001610500001789, -0.00253685, -0.00258871, -0.000858048, -0.00404891, 0.409046, 0.366437
883.62333240500004194, -0.00253636, -0.00258993, -0.000859993, -0.00479494, 0.408046, 0.365887
883.6566487390000475, -0.00253646, -0.00259065, -0.000858827, -0.00431333, 0.408034, 0.366705
883.6899651050000557, -0.00253642, -0.00259137, -0.000857939, -0.00389064, 0.408063, 0.367077
883.72328140499996607, -0.00253638, -0.00259198, -0.000858274, -0.00327783, 0.407749, 0.366813
883.7565977719999637, -0.00253742, -0.00259539, -0.000857856, -0.00457419, 0.406002, 0.367211
883.78991407199998775, -0.00253776, -0.00259587, -0.000856957, -0.00540167, 0.405889, 0.367722
883.82323043899998538, -0.00253858, -0.00259725, -0.000855208, -0.0054796, 0.405599, 0.368505
883.8566967100000511, -0.00253938, -0.0025992, -0.000853499, -0.00523537, 0.405223, 0.369356
883.89001310499997999, -0.00253986, -0.00259884, -0.000853099, -0.00482822, 0.405714, 0.369658
883.92332943899998554, -0.00254031, -0.00259843, -0.000852976, -0.00470425, 0.406112, 0.369862
883.9566457390000096, -0.00254129, -0.00260006, -0.000850961, -0.00449171, 0.405913, 0.370686
883.9899621050000178, -0.00254332, -0.00260111, -0.000847965, -0.00443739, 0.405984, 0.371635
884.02327840500004186, -0.00254408, -0.00259845, -0.000849306, -0.00424257, 0.406605, 0.370612
884.05659477200003948, -0.00254541, -0.00259706, -0.000849341, -0.00377685, 0.406862, 0.370393
884.08991107700001066, -0.00254644, -0.00259795, -0.000849278, -0.00326232, 0.40665, 0.370305
884.12322743900006117, -0.00254648, -0.00259878, -0.000849232, -0.00274789, 0.406448, 0.370327
884.15654377199996361, -0.00254645, -0.00259926, -0.000849121, -0.00167683, 0.406379, 0.370256
884.18986007700004848, -0.00254577, -0.0025998, -0.000851636, -0.00250663, 0.4057, 0.369628
884.22332643900006133, -0.00254662, -0.00259818, -0.000850942, -0.00341277, 0.406657, 0.369799
884.2566427389999717, -0.00254789, -0.00259381, -0.000850661, -0.00406741, 0.408328, 0.369423
884.2899591049999799, -0.00254802, -0.00259151, -0.000855172, -0.00503836, 0.408192, 0.36797
884.32327540500000396, -0.00254876, -0.0025912, -0.000856064, -0.00516784, 0.408241, 0.367567
884.35659177200000158, -0.00254871, -0.00259121, -0.000856522, -0.00495917, 0.408203, 0.367413
884.38990807699997276, -0.00254886, -0.0025922, -0.000855129, -0.00412024, 0.408289, 0.367871
884.42322440999998889, -0.00254882, -0.00259297, -0.000855504, -0.00393153, 0.408021, 0.3679
884.45654193899997608, -0.00254926, -0.00259299, -0.000854555, -0.00415189, 0.408124, 0.368122
884.48985710500005553, -0.00255041, -0.00258805, -0.000854399, -0.00364666, 0.409806, 0.367445
884.52317341000002671, -0.00255097, -0.00258696, -0.000856342, -0.0041688, 0.409732, 0.366678
884.55663977200003956, -0.00255224, -0.00258828, -0.000857774, -0.00534685, 0.409238, 0.366487
884.58995610500005569, -0.00255469, -0.00259071, -0.000857742, -0.00608627, 0.409101, 0.366731
884.62327240499996606, -0.0025572, -0.00259459, -0.00085866, -0.0062616, 0.40874, 0.366617
884.65658877199996368, -0.00255897, -0.0025964, -0.000857858, -0.00624532, 0.408993, 0.366791
884.68990507199998774, -0.00256075, -0.00259872, -0.000856236, -0.00579019, 0.408622, 0.367109
884.72322141000006468, -0.0025623, -0.00260076, -0.000854587, -0.00512099, 0.408388, 0.367469
884.7565377720000015, -0.00256291, -0.00260071, -0.000852493, -0.00408842, 0.409027, 0.367848
884.78985410500001763, -0.00256349, -0.00260062, -0.000851202, -0.00383235, 0.409363, 0.368121
884.82317044299998088, -0.00256209, -0.00260127, -0.000856088, -0.00399459, 0.408199, 0.367105
884.85648677200003931, -0.0025622, -0.00260201, -0.00085608, -0.00334138, 0.407952, 0.366938
884.88980310500005544, -0.00256257, -0.00260248, -0.000854324, -0.00314843, 0.408134, 0.367307
884.92326937699999689, -0.00256227, -0.00260476, -0.000854723, -0.00402907, 0.407542, 0.367631
884.9565857390000474, -0.00256176, -0.00260567, -0.000856188, -0.00448032, 0.407049, 0.367583
884.9899021050000556, -0.0025607, -0.00260612, -0.000859345, -0.00485445, 0.406336, 0.367155
885.02321732999996584, -0.0025607, -0.00260342, -0.000860099, -0.00335048, 0.406778, 0.366509
885.05653193099999498, -0.00256142, -0.00260083, -0.000858357, -0.00288199, 0.407721, 0.366367
885.08984541799998169, -0.00256133, -0.00259752, -0.000859201, -0.00291385, 0.408372, 0.365801
885.12315945199998168, -0.00256087, -0.00259415, -0.000861669, -0.00361895, 0.408765, 0.365101
885.1564734869999711, -0.00255935, -0.00259329, -0.000866097, -0.00449998, 0.408178, 0.364392
885.18978752099997109, -0.00255866, -0.0025913, -0.000868408, -0.00503802, 0.408191, 0.363807
885.22310152199997901, -0.00256006, -0.00258832, -0.000865859, -0.00426475, 0.409306, 0.363679
885.2565655800000286, -0.00256101, -0.00258775, -0.000863853, -0.00423171, 0.409821, 0.363925
885.28987958599998365, -0.00256086, -0.0025884, -0.000865101, -0.00443569, 0.409424, 0.363975
885.32319360600001801, -0.00256098, -0.00258647, -0.000865461, -0.00440538, 0.409643, 0.363625
885.35650765000002593, -0.00256149, -0.00258179, -0.000865984, -0.00460026, 0.410433, 0.362959
885.38982171800000742, -0.00256191, -0.00257927, -0.000866937, -0.00472898, 0.410696, 0.362519
885.42313571900001534, -0.00256248, -0.00257833, -0.000865483, -0.00462527, 0.41116, 0.362528
885.45644978699999683, -0.00256292, -0.00257783, -0.000863658, -0.003841, 0.411577, 0.362398
885.48976382099999682, -0.00256273, -0.00257974, -0.000862756, -0.00284332, 0.411423, 0.362572
885.5230778799999598, -0.00256396, -0.00258186, -0.000857248, -0.00192138, 0.412202, 0.363181
885.55639189500004704, -0.00256503, -0.00258375, -0.000853253, -0.0034334, 0.412673, 0.364022
885.58985588100006225, -0.00256503, -0.00258375, -0.000853253, -0.0034334, 0.412673, 0.364022
885.62316994900004374, -0.00256427, -0.00258437, -0.000855518, -0.00409573, 0.412154, 0.36407
885.65648398400003316, -0.0025653, -0.00258767, -0.00085175, -0.00238532, 0.412389, 0.364638
885.68979801800003315, -0.00256628, -0.00258559, -0.000849545, -0.0016185, 0.413123, 0.364364
885.72311205300002257, -0.00256676, -0.0025831, -0.000848937, -0.00102316, 0.413607, 0.363927
885.75642608700002256, -0.00256639, -0.0025817, -0.000850136, -0.00253449, 0.413588, 0.36381
885.78974012200001198, -0.00256674, -0.00258347, -0.000847352, -0.00376591, 0.41382, 0.364392
885.82305415600001197, -0.00256673, -0.00258758, -0.000844281, -0.00391676, 0.413677, 0.365093
885.85636819100000139, -0.00256614, -0.00259045, -0.000844256, -0.00375917, 0.413148, 0.365418
885.88968222500000138, -0.00256516, -0.00259291, -0.000846095, -0.00393105, 0.412424, 0.365714
885.9229962599999908, -0.00256387, -0.00259457, -0.000849875, -0.0040361, 0.411608, 0.365809
885.95646024999996371, -0.0025622, -0.00259282, -0.000854642, -0.00423296, 0.410925, 0.365259
885.98977428500006681, -0.00256272, -0.00259103, -0.00085482, -0.00339405, 0.411128, 0.364845
886.02308939900001405, -0.00256283, -0.00259069, -0.000855136, -0.00298374, 0.41114, 0.364738
886.05640574300002754, -0.00256309, -0.00258851, -0.00085731, -0.00377144, 0.410945, 0.36442
886.08972210499996436, -0.0025649, -0.00258574, -0.000856893, -0.00387658, 0.411188, 0.364005
886.12303843799998049, -0.00256634, -0.00259004, -0.000853583, -0.00485545, 0.411399, 0.364987
886.15635480000003099, -0.00256684, -0.00259168, -0.000852521, -0.0052226, 0.411445, 0.365316
886.18967110500000217, -0.00256705, -0.0025933, -0.000853676, -0.00505014, 0.41108, 0.36552
886.22298740500002623, -0.00256695, -0.0025953, -0.000854358, -0.00456373, 0.410797, 0.365809
886.25630373800004236, -0.00256772, -0.00259714, -0.000851716, -0.00453189, 0.411092, 0.366169
886.28977007200001026, -0.00256816, -0.0025953, -0.000851922, -0.00502842, 0.41111, 0.365881
886.32308640500002639, -0.00256688, -0.00259557, -0.000855986, -0.00573399, 0.410348, 0.365987
886.35640273800004252, -0.00256586, -0.00259725, -0.000858835, -0.00606884, 0.409739, 0.366314
886.38971910500004014, -0.00256569, -0.00259687, -0.000859131, -0.00509799, 0.409835, 0.366081
886.42303537600002983, -0.00256611, -0.00259733, -0.000857568, -0.0042941, 0.410145, 0.366042
886.45635174300002745, -0.00256641, -0.00259719, -0.000856641, -0.00368614, 0.410387, 0.365921
886.48966810499996427, -0.0025662, -0.00259621, -0.000857801, -0.00369713, 0.410176, 0.365794
886.52298438100001476, -0.00256632, -0.00259388, -0.000857717, -0.00414983, 0.410244, 0.365492
886.55630077199998595, -0.00256636, -0.00259195, -0.000858309, -0.00428805, 0.410231, 0.365184
886.58961710500000208, -0.00256686, -0.0025931, -0.000857362, -0.00415762, 0.410392, 0.365326
886.62293340999997326, -0.00256801, -0.00259338, -0.000855674, -0.00424934, 0.410678, 0.365229
886.65639973800000462, -0.00256898, -0.00259233, -0.000853519, -0.00426032, 0.411056, 0.364903
886.68971607599996787, -0.00257077, -0.00259184, -0.000848624, -0.00407182, 0.411861, 0.364481
886.72303243800001837, -0.00257184, -0.00258965, -0.000846402, -0.00442113, 0.412052, 0.364024
886.75634873800004243, -0.00257222, -0.00258749, -0.000846384, -0.00529285, 0.411985, 0.36378
886.78966510500004006, -0.00257187, -0.00258594, -0.000849203, -0.00611783, 0.41151, 0.363804
886.82298143800005619, -0.00257209, -0.00258567, -0.000851071, -0.00565166, 0.411241, 0.363812
886.85629777200006174, -0.00257199, -0.00258735, -0.000850377, -0.00498706, 0.4114, 0.363951
886.88961440000002767, -0.00257184, -0.00258788, -0.000850586, -0.00464973, 0.411417, 0.363982
