time, bias_gyr_x, bias_gyr_y, bias_gyr_z, bias_acc_x, bias_acc_y, bias_acc_z
-1, 0, 0, 0, 0, 0, 0
-1, 0, 0, 0, 0, 0, 0
608.30637816099999782, 0, 0, 0, 0, 0, 0
608.33969446100002187, -0.00214785, 0.00836759, -0.000939038, 1.78219e-05, -3.29486e-05, 9.66819e-05
608.37301079899998513, -0.00346185, -0.00171586, -0.00213087, 0.00544443, -0.000125946, -0.0010052
608.40632713200000126, -0.00343741, -0.00246359, -0.0008748, -0.00050304, 9.99713e-05, 9.87455e-05
608.43964346500001739, -0.00250746, -0.00291347, -0.000515725, -0.0110657, 0.000111719, 0.00254097
608.4729598269999542, -0.0022679, -0.00247987, -0.000402465, -0.0344072, -0.000129568, 0.00791996
608.50627616099995976, -0.00217308, -0.00238665, -0.000284207, -0.0530998, -0.00036268, 0.0122382
608.53959246499994151, -0.00207049, -0.00288469, -0.000329359, -0.0499189, -0.000328171, 0.0115151
608.5730588459999808, -0.00221437, -0.00337805, -0.000338238, -0.0552317, -0.000429759, 0.0127452
608.60637516099995992, -0.00211675, -0.00293174, -0.000204482, -0.083855, -0.000856957, 0.0195714
608.63969149399997605, -0.0019486, -0.00261478, -0.000124662, -0.0950519, -0.00100956, 0.0222786
608.67300779899994723, -0.00190537, -0.0026534, -0.000118934, -0.0888437, -0.000924122, 0.0207861
608.70632409899997128, -0.0018018, -0.00270307, -0.000116861, -0.089445, -0.000931531, 0.0209382
608.73964046100002179, -0.00167189, -0.00267916, -0.000161693, -0.0895043, -0.000931977, 0.0209573
608.77295682700002999, -0.00159792, -0.00265131, -0.000205881, -0.0901995, -0.000943319, 0.0211324
608.80627316100003554, -0.00155969, -0.00258983, -0.000211665, -0.0924998, -0.00098048, 0.0217193
608.83958943200002523, -0.00152107, -0.00247592, -0.000232944, -0.0952093, -0.00102384, 0.0224223
608.87290582699995412, -0.00157216, -0.00248069, -0.000270205, -0.0941438, -0.00101055, 0.0221329
608.9063721649999934, -0.00162257, -0.00245151, -0.000285297, -0.0944952, -0.0010177, 0.0222165
608.93968849400005183, -0.00165755, -0.00244906, -0.000289162, -0.0943121, -0.00101528, 0.02216
608.9730047939999622, -0.00167079, -0.00241436, -0.000291605, -0.0959909, -0.00103076, 0.0226316
609.00632116099995983, -0.00165669, -0.00235156, -0.00029801, -0.0977623, -0.00103834, 0.0231535
609.03963749399997596, -0.00150398, -0.00216985, -0.000273736, -0.101651, -0.0010404, 0.0243591
609.07295507499998166, -0.00140684, -0.00201817, -0.000268791, -0.101974, -0.00105009, 0.0244714
609.10627013199996327, -0.00140184, -0.00197387, -0.000273366, -0.100561, -0.00106416, 0.0239809
609.1395864649999794, -0.00144349, -0.00196417, -0.000254451, -0.0997892, -0.00105522, 0.0236593
609.1729028270000299, -0.00153495, -0.00192069, -0.000252499, -0.0989221, -0.0010297, 0.0232712
609.20621916100003546, -0.00164332, -0.0018803, -0.000238427, -0.0988198, -0.00099239, 0.0231473
609.23953549400005159, -0.00172858, -0.00181888, -0.000231274, -0.0994253, -0.000962487, 0.0233678
609.27300182700003006, -0.00180441, -0.00184162, -0.000254201, -0.0976455, -0.000969504, 0.0227683
609.30631812699994043, -0.00190741, -0.00187801, -0.000262434, -0.0960764, -0.00096462, 0.022214
609.33963446500001737, -0.00198335, -0.00190517, -0.000249865, -0.0957647, -0.000930638, 0.022121
609.37295079900002293, -0.00203409, -0.00193244, -0.000230689, -0.095795, -0.000935636, 0.022201
609.40626715999997032, -0.0020649, -0.00196814, -0.000220917, -0.0953543, -0.000972202, 0.0220919
609.43958349399997587, -0.00209413, -0.00199214, -0.000219339, -0.0952356, -0.000991912, 0.0220688
609.47289979899994705, -0.00213857, -0.00199109, -0.000194107, -0.0958434, -0.000942898, 0.0222738
609.50621616000000813, -0.00217094, -0.00201521, -0.000148084, -0.094942, -0.00103636, 0.0220475
609.53953249400001368, -0.00222227, -0.00203084, -8.99513e-05, -0.0940839, -0.00114842, 0.0218578
609.57284889899995051, -0.00225557, -0.00203768, -4.90773e-06, -0.0935017, -0.00125633, 0.0217877
609.60631512700001622, -0.00227226, -0.0020632, 4.69887e-05, -0.0932882, -0.00130104, 0.021759
609.63963146499997947, -0.00227628, -0.00204144, 6.19026e-05, -0.0915651, -0.00177756, 0.0217542
609.67294779899998503, -0.00227334, -0.00203171, 2.33084e-05, -0.0894843, -0.00225747, 0.0219447
609.70626412699994034, -0.00228166, -0.00204515, 3.35451e-05, -0.0882677, -0.00255497, 0.0217186
609.73958045999995647, -0.00228531, -0.00205401, 6.23576e-05, -0.0893631, -0.00227852, 0.0203796
609.7728968269999541, -0.00230114, -0.00207453, 7.01974e-05, -0.0898873, -0.00199696, 0.0201543
609.80621312699997816, -0.00231798, -0.00209785, 8.88614e-05, -0.0901362, -0.00140328, 0.020015
609.83952949399997578, -0.00231994, -0.00206466, 0.000100074, -0.096057, -0.00140151, 0.0128185
609.87284579399999984, -0.00232478, -0.00206294, 0.000121166, -0.0988265, -0.000309055, 0.00865931
609.90616212700001597, -0.00232936, -0.00208655, 0.000121658, -0.0894546, -0.00204632, 0.0262423
609.9394784600000321, -0.00232584, -0.00207377, 0.000131524, -0.0849415, -0.00132549, 0.0346588
609.97294482699999207, -0.00232763, -0.00209165, 0.000151488, -0.0855729, 0.00152809, 0.0316371
610.00626114099998176, -0.00233592, -0.00210949, 0.000165637, -0.0836759, 0.00523598, 0.0348628
610.03957749400001376, -0.00236062, -0.00207435, 0.000150387, -0.0817106, 0.00666078, 0.040391
610.07289457000001676, -0.00237944, -0.00207544, 0.000131585, -0.080709, 0.00748224, 0.0448945
610.10621011299997463, -0.00238821, -0.00208407, 0.000127114, -0.0784401, 0.0070564, 0.0516046
610.1395264650000172, -0.00238827, -0.00209157, 0.000126979, -0.0769598, 0.0066346, 0.055695
610.17284282699995401, -0.00239472, -0.00209823, 0.0001257, -0.0721041, 0.00143597, 0.0694014
610.20616246500003399, -0.00239425, -0.00208712, 0.000130384, -0.0705762, -0.00262987, 0.0732467
610.23947546499994132, -0.00238721, -0.00208029, 0.000147137, -0.0945899, 0.0348602, 0.000407887
610.27279182699999183, -0.00238588, -0.00206056, 0.000133848, -0.0983686, 0.0433487, -0.00959064
610.30625812699997823, -0.00238394, -0.00206074, 0.000136179, -0.0989808, 0.0458574, -0.0118156
610.33957449399997586, -0.0023826, -0.00210245, 0.000158209, -0.0760683, 0.0102971, 0.0622698
610.37289079799995761, -0.00237197, -0.00211926, 0.000187566, -0.0671638, -0.0118292, 0.0874096
610.40620716000000812, -0.00236277, -0.00211713, 0.000207931, -0.0735889, -0.0107581, 0.0608786
610.43952343199998722, -0.00235888, -0.00210471, 0.000219136, -0.0843348, -0.000907347, 0.0206197
610.47283983199997692, -0.00236626, -0.00208435, 0.000198656, -0.0997815, 0.0196609, -0.0318148
610.50615616000004593, -0.00236623, -0.00206067, 0.000169782, -0.100537, 0.0155067, -0.0300904
610.53947249400005148, -0.00236639, -0.00206194, 0.000148648, -0.0979572, 0.0210515, -0.0164627
610.57278879800003324, -0.00236742, -0.00208212, 0.00015277, -0.0928668, 0.0357735, 0.00309827
610.60610515999997006, -0.0023644, -0.00210089, 0.000164985, -0.095702, 0.0490279, -0.00933014
610.63942149399997561, -0.00235813, -0.00210449, 0.000203778, -0.0904782, 0.043216, 0.00622704
610.67288782699995409, -0.00235377, -0.00212271, 0.000228341, -0.0802974, 0.0508368, 0.0434959
610.70620413200003895, -0.00235126, -0.00214027, 0.000238065, -0.0770279, 0.0603584, 0.0553929
610.73952049399997577, -0.00234962, -0.00216769, 0.000233521, -0.0758331, 0.0751724, 0.0614573
610.7728368269999919, -0.0023448, -0.00218736, 0.000256414, -0.0790607, 0.0806723, 0.047135
610.80615316000000803, -0.00234647, -0.00218487, 0.000270215, -0.0889401, 0.073589, 0.00757607
610.83946949400001358, -0.00234687, -0.00219493, 0.000271995, -0.0928758, 0.0770206, -0.00745423
610.87278579799999534, -0.00234226, -0.0022027, 0.000275259, -0.0850321, 0.0895489, 0.0233764
610.90610216499999297, -0.00233056, -0.0022078, 0.0002679, -0.0751991, 0.102807, 0.0622954
610.93941845500000909, -0.00232812, -0.0022332, 0.000257245, -0.0738782, 0.111481, 0.0681605
610.97273479399996177, -0.00232531, -0.00226238, 0.000267613, -0.0680824, 0.126079, 0.0908267
611.00620113200000105, -0.00231636, -0.0022725, 0.000248346, -0.0637726, 0.134787, 0.10745
611.03951745999995637, -0.00232526, -0.00236348, 0.000253284, -0.0674526, 0.130907, 0.0945926
611.07283379800003331, -0.00234906, -0.00244792, 0.000305725, -0.069955, 0.129953, 0.0882468
611.10615013200003887, -0.00234523, -0.00245863, 0.000326563, -0.068479, 0.132473, 0.0949391
611.13946646499994131, -0.00234491, -0.00247094, 0.000293486, -0.0706639, 0.129369, 0.0839217
611.17278282699999181, -0.00235387, -0.00253547, 0.000283354, -0.0685706, 0.129143, 0.0904433
611.20609916000000794, -0.00235613, -0.00260488, 0.000281808, -0.0631493, 0.133433, 0.110469
611.23941546499997912, -0.00235826, -0.00261289, 0.000269088, -0.0624835, 0.136372, 0.110859
611.27273179400003755, -0.0023566, -0.0026431, 0.000277681, -0.0598786, 0.132902, 0.121784
611.30604813200000081, -0.00235417, -0.00267633, 0.000306726, -0.0558744, 0.124836, 0.140567
611.33951449400001366, -0.0023472, -0.00269869, 0.000306842, -0.0574035, 0.113915, 0.134569
611.37283079400003771, -0.00234135, -0.00269294, 0.000273206, -0.0578021, 0.114534, 0.126167
611.40614716000004591, -0.00234323, -0.00271455, 0.000257415, -0.060331, 0.103131, 0.11392
611.43946343200002502, -0.00234216, -0.00272542, 0.000234, -0.0585295, 0.0996073, 0.117237
611.47277979299997241, -0.00233411, -0.00272676, 0.000225934, -0.0533332, 0.0874048, 0.134799
611.50609615999997004, -0.00233974, -0.00273225, 0.000205194, -0.0515305, 0.0908649, 0.136887
611.53941249299998617, -0.00234953, -0.0027306, 0.000153397, -0.0550493, 0.0990438, 0.111074
611.57272879300001023, -0.00235716, -0.00272133, 0.000108836, -0.0575626, 0.107249, 0.0918251
611.60604512700001578, -0.00235558, -0.0027017, 0.000104983, -0.0552156, 0.128104, 0.100652
611.63936149300002398, -0.00236231, -0.00265908, 0.000112412, -0.0575598, 0.154247, 0.0921096
611.67267779300004804, -0.00236699, -0.002619, 9.99523e-05, -0.057181, 0.173483, 0.0913885
611.70614416000000801, -0.00236934, -0.00261271, 7.91868e-05, -0.0571098, 0.165038, 0.0882969
611.73946049300002414, -0.00237493, -0.00262643, 7.14445e-05, -0.0561663, 0.162883, 0.0900543
611.7727768270000297, -0.00237707, -0.00262992, 6.55432e-05, -0.0542306, 0.170619, 0.0976303
611.80609316000004583, -0.00237929, -0.00263281, 4.148e-05, -0.0529889, 0.171376, 0.101202
611.83940946500001701, -0.00238249, -0.00264077, 2.61952e-05, -0.0514336, 0.165979, 0.106966
611.87272582699995382, -0.00238435, -0.00264053, 2.08979e-05, -0.0485668, 0.156127, 0.120207
611.90604215999996995, -0.00238946, -0.00265689, 2.43037e-05, -0.0452953, 0.142507, 0.135528
611.93935849299998608, -0.00238571, -0.00263928, 2.64958e-05, -0.0480829, 0.14984, 0.122768
611.97267482699999164, -0.00238778, -0.00263759, 4.14458e-05, -0.0490003, 0.153458, 0.119637
612.00599113199996282, -0.0023904, -0.00263392, -3.95211e-06, -0.0464527, 0.145044, 0.129135
612.03945743199994922, -0.00238978, -0.00263652, -3.8868e-05, -0.0431553, 0.130415, 0.143083
612.0727738269999918, -0.00239698, -0.00262954, 4.48567e-05, -0.0434734, 0.146178, 0.147032
612.10609016000000793, -0.00239873, -0.00259219, 6.84717e-05, -0.0410743, 0.165001, 0.159731
612.13940650799997911, -0.00240777, -0.00258996, 0.000138377, -0.045074, 0.188293, 0.143637
612.17272279799999524, -0.00241037, -0.00258829, 0.000168184, -0.0442153, 0.189455, 0.149096
612.20603913100001137, -0.00240546, -0.0025887, 0.000155727, -0.0426352, 0.187703, 0.156287
612.23935543599998255, -0.00240286, -0.00257272, 0.000163004, -0.0444609, 0.194678, 0.147776
612.27267179800003305, -0.00240377, -0.00255036, 0.00019346, -0.0456591, 0.203968, 0.143036
612.30598813100004918, -0.00239953, -0.00254081, 0.000188424, -0.0434084, 0.206466, 0.15319
612.3393069269999387, -0.00239914, -0.0025473, 0.000156326, -0.0424303, 0.199338, 0.156659
612.37262082699999155, -0.00240697, -0.00254636, 0.000180033, -0.0404849, 0.203948, 0.166151
612.40608713100004934, -0.00240605, -0.00253674, 0.000187108, -0.037792, 0.213403, 0.177761
612.43940350299999409, -0.00240633, -0.00252279, 0.00021975, -0.0372198, 0.221426, 0.181458
612.47271979799995734, -0.00240079, -0.00250038, 0.000201063, -0.0370239, 0.225893, 0.181681
612.50603612700001577, -0.00240103, -0.00250162, 0.000160681, -0.0344242, 0.233458, 0.190044
612.53935249300002397, -0.0023983, -0.0025454, 0.000171923, -0.0323524, 0.232436, 0.198574
612.57266882700002952, -0.00239841, -0.00255766, 0.000173897, -0.0315792, 0.23191, 0.20156
612.60598516000004565, -0.00238767, -0.00255804, 0.000137665, -0.0289517, 0.244177, 0.209294
612.63930146500001683, -0.00238343, -0.00256969, 0.0001415, -0.0262009, 0.258108, 0.218973
612.67261782699995365, -0.00237264, -0.00256513, 0.000100634, -0.0232989, 0.274621, 0.227118
612.70593415999996978, -0.00236607, -0.00255254, 5.42694e-05, -0.0231663, 0.274672, 0.225838
612.73940045999995618, -0.00237504, -0.0025213, 8.4396e-05, -0.0224604, 0.287361, 0.230137
612.77271682699995381, -0.00236895, -0.00251452, 8.02211e-05, -0.0199448, 0.306691, 0.23795
612.80603319299996201, -0.0023804, -0.00255079, 7.49021e-05, -0.0191361, 0.308398, 0.240215
612.83934949299998607, -0.00243009, -0.00251999, 0.000139736, -0.0157853, 0.342481, 0.253078
612.87266579799995725, -0.00244045, -0.00249037, 0.000158378, -0.0154018, 0.354045, 0.255206
612.90598216000000775, -0.00245895, -0.00246522, 0.000138103, -0.0157667, 0.356987, 0.253972
612.93929849300002388, -0.00246129, -0.00244996, 0.000132014, -0.015828, 0.359584, 0.253905
612.97261482700002944, -0.00246894, -0.00246424, 0.000132498, -0.0147875, 0.365136, 0.256749
613.00593116000004557, -0.00247602, -0.00247443, 0.000138092, -0.0133476, 0.371469, 0.260804
613.03924749299994801, -0.00248303, -0.00247231, 0.000150393, -0.0126691, 0.375232, 0.262733
613.07256379299997207, -0.00249704, -0.00245962, 0.000151014, -0.0115927, 0.380555, 0.26565
613.10603016000004573, -0.00250993, -0.00244215, 0.000135742, -0.0109963, 0.383061, 0.267314
613.13934646500001691, -0.00252484, -0.00243692, 0.000136844, -0.0107541, 0.384043, 0.267964
613.17266282699995372, -0.00253118, -0.002434, 0.000132701, -0.0106162, 0.384608, 0.268374
613.20597912699997778, -0.00253823, -0.00242813, 0.000108235, -0.0101592, 0.384598, 0.270105
613.23929545999999391, -0.0025426, -0.00243007, 8.2969e-05, -0.00947303, 0.385075, 0.272666
613.27261179799995716, -0.00254588, -0.00242496, 6.91935e-05, -0.00920307, 0.385178, 0.273819
613.30592816000000767, -0.00254172, -0.002391, 2.52374e-05, -0.00914748, 0.384287, 0.275359
613.33924449300002379, -0.00253829, -0.00236045, 6.00858e-06, -0.00952205, 0.383203, 0.274796
613.37256082700002935, -0.00253931, -0.00234592, -1.056e-05, -0.0102335, 0.38251, 0.273046
613.40587712699993972, -0.00253793, -0.00235321, -1.8869e-05, -0.0108908, 0.382621, 0.270921
613.43934343099999751, -0.00254234, -0.00233181, -2.07816e-05, -0.0117414, 0.38017, 0.267691
613.47265979300004801, -0.0025401, -0.0023267, -4.41145e-05, -0.0126976, 0.379562, 0.264939
613.50597612699993988, -0.00254939, -0.0023399, -1.38741e-05, -0.0139203, 0.380218, 0.258176
613.53929249299994808, -0.00255624, -0.00233398, 2.06488e-05, -0.0152996, 0.378676, 0.250552
613.57260879800003295, -0.00255983, -0.00235315, 6.15208e-05, -0.0161046, 0.380792, 0.244885
613.60592513100004908, -0.0025602, -0.002355, 9.36012e-05, -0.0164394, 0.3807, 0.241425
613.63924143600002026, -0.00256707, -0.00238044, 0.000140591, -0.0166422, 0.384591, 0.237227
613.67255779300000995, -0.00258275, -0.00243833, 0.000200023, -0.0167124, 0.395862, 0.232237
613.7058741309999732, -0.00259156, -0.00246294, 0.00023692, -0.0166354, 0.40107, 0.229445
613.73919046499997876, -0.00258939, -0.00245878, 0.000257293, -0.0162596, 0.401545, 0.229383
613.77250682600003984, -0.00257789, -0.00245814, 0.000260615, -0.0159724, 0.402388, 0.230104
613.80597316000000774, -0.00257095, -0.00246159, 0.00026362, -0.0158699, 0.403186, 0.230077
613.83928949300002387, -0.00256671, -0.00247353, 0.000249082, -0.0153115, 0.40685, 0.233433
613.87260579300004792, -0.00256038, -0.0024833, 0.000229077, -0.0146471, 0.410475, 0.237536
613.90592216000004555, -0.00255171, -0.00248182, 0.000209602, -0.013891, 0.412396, 0.241976
613.93923849299994799, -0.0025468, -0.00249653, 0.000205768, -0.0132078, 0.418145, 0.244669
613.97255482599996412, -0.00253817, -0.0024921, 0.00019017, -0.0125818, 0.419135, 0.247975
614.00587115999996968, -0.00253121, -0.00249266, 0.000183753, -0.0120251, 0.420831, 0.25029
614.03918749800004662, -0.00253195, -0.00251538, 0.000197237, -0.0115042, 0.426491, 0.250985
614.07250379799995699, -0.00253364, -0.00253929, 0.000207934, -0.0107783, 0.432431, 0.252543
614.10582016000000749, -0.00253205, -0.00255183, 0.000207362, -0.0101193, 0.436476, 0.254565
614.13928649299998597, -0.00252663, -0.00257392, 0.000199668, -0.00939413, 0.442634, 0.257097
614.1726028260000021, -0.00251761, -0.00257869, 0.000172236, -0.00862602, 0.445474, 0.260022
614.20591913099997328, -0.00251566, -0.00258415, 0.00015413, -0.00786086, 0.448474, 0.262113
614.23923546000003171, -0.00251233, -0.00257676, 0.000128568, -0.00722231, 0.449012, 0.263735
614.27255179799999496, -0.00250568, -0.00256048, 0.000101082, -0.00652234, 0.448478, 0.265171
614.30586816000004546, -0.00250426, -0.00257222, 7.8828e-05, -0.00543608, 0.452981, 0.267232
614.33918446500001664, -0.00250076, -0.00258175, 4.65133e-05, -0.00458245, 0.456576, 0.268971
614.37250079800003277, -0.00250277, -0.00257255, 3.16898e-05, -0.00448466, 0.455289, 0.268976
614.40581715999996959, -0.00250586, -0.00255168, -1.61837e-05, -0.00426879, 0.45308, 0.269227
614.43913346399995135, -0.00250249, -0.00253152, -5.78874e-05, -0.00409442, 0.4511, 0.269358
614.47259979800003293, -0.00250113, -0.00253298, -8.18577e-05, -0.00396746, 0.451229, 0.269636
614.50591615999996975, -0.00250302, -0.00254304, -0.000116435, -0.00406476, 0.451785, 0.269808
614.53923246399995151, -0.00250611, -0.00255353, -0.00014487, -0.00390464, 0.452546, 0.270372
614.57254879300000994, -0.00250512, -0.00253329, -0.000171991, -0.00390896, 0.450223, 0.27032
614.60586513099997319, -0.00250346, -0.00250953, -0.00020294, -0.00379638, 0.447556, 0.270558
614.63918149300002369, -0.00250299, -0.00250047, -0.00023004, -0.00382279, 0.446476, 0.270757
614.67249782600003982, -0.00249917, -0.00249261, -0.000250502, -0.00399536, 0.445672, 0.270761
614.70581416000004538, -0.00249286, -0.00249032, -0.000255001, -0.00384281, 0.445215, 0.27126
614.73913046400002713, -0.00249041, -0.00249357, -0.000254014, -0.00441619, 0.446332, 0.269964
614.7724468500000512, -0.00248863, -0.00249464, -0.000265633, -0.00455615, 0.44687, 0.270175
614.80576313100004882, -0.00248979, -0.00249909, -0.000278945, -0.00467693, 0.447879, 0.270446
614.83922946400002729, -0.00248694, -0.00250305, -0.00027904, -0.00507935, 0.449307, 0.269373
614.87254580700005135, -0.00248439, -0.00251381, -0.00026173, -0.00539097, 0.45111, 0.267697
614.90586213100004898, -0.00248456, -0.00251719, -0.000244655, -0.0055578, 0.452094, 0.26652
614.93917846399995142, -0.00249053, -0.00251118, -0.000222, -0.0060934, 0.452023, 0.263327
614.97249476399997548, -0.00248776, -0.00251828, -0.000215961, -0.00633681, 0.45489, 0.262346
615.0058111309999731, -0.00248772, -0.00253241, -0.000203894, -0.0066114, 0.458504, 0.260734
615.03912746900005004, -0.00248991, -0.00252526, -0.000174111, -0.00698766, 0.456669, 0.256855
615.07244379799999479, -0.00249239, -0.00252082, -0.000140385, -0.00722809, 0.455365, 0.253066
615.10576016000004529, -0.00250155, -0.00252875, -9.47301e-05, -0.00737291, 0.456407, 0.248798
615.13907649299994773, -0.00250438, -0.00254165, -6.98216e-05, -0.00722083, 0.459222, 0.247301
615.17254276899996057, -0.00249885, -0.00254686, -7.29209e-05, -0.00673875, 0.461426, 0.249057
615.20585912599995027, -0.00249453, -0.00255186, -7.74728e-05, -0.00636525, 0.462866, 0.250489
615.2391754640000272, -0.00249015, -0.00255417, -8.12676e-05, -0.00600427, 0.463093, 0.251643
615.27249182599996402, -0.00248847, -0.00257402, -8.98311e-05, -0.00553898, 0.468318, 0.25344
615.30580813100004889, -0.00248361, -0.00258526, -8.87824e-05, -0.00498211, 0.472111, 0.254562
615.3391244929999857, -0.00248139, -0.00259516, -8.64184e-05, -0.00439434, 0.475794, 0.255624
615.37244082600000183, -0.0024771, -0.00259182, -8.43864e-05, -0.0039799, 0.476177, 0.256051
615.40575710200005233, -0.00246943, -0.00260397, -8.30312e-05, -0.00346642, 0.480886, 0.257025
615.43907346000003145, -0.00246328, -0.00261842, -8.87143e-05, -0.00273295, 0.487482, 0.258521
615.47238982600003965, -0.00246658, -0.00263981, -7.94532e-05, -0.00208694, 0.494179, 0.25906
615.50570613100001083, -0.00247008, -0.00266511, -6.09932e-05, -0.00160375, 0.500848, 0.259222
615.53917249300002368, -0.00247774, -0.00266236, -4.48981e-05, -0.000747867, 0.504357, 0.259186
615.57248882600003981, -0.00247734, -0.00265428, -6.56118e-05, -5.81693e-05, 0.505558, 0.259823
615.60580516400000306, -0.00247827, -0.00266041, -9.49584e-05, 0.000492414, 0.507798, 0.260547
615.63912146400002712, -0.00247841, -0.00266323, -0.000127861, 0.00111643, 0.509526, 0.261016
615.67243779299997186, -0.00248141, -0.00265549, -0.000161989, 0.0012309, 0.508697, 0.26092
615.70575412599998799, -0.00248271, -0.00264025, -0.000200855, 0.00135994, 0.507554, 0.260533
615.73907046399995124, -0.00248038, -0.00261504, -0.000233955, 0.00160613, 0.505567, 0.259948
615.77238684999997531, -0.00247433, -0.0026024, -0.000264595, 0.00168772, 0.50414, 0.259397
615.8057031600000073, -0.00247333, -0.00260032, -0.000292987, 0.00177375, 0.503477, 0.25902
615.83901949300002343, -0.00247644, -0.00260259, -0.00031901, 0.00197596, 0.502337, 0.258748
615.87248579300000983, -0.00247509, -0.00260984, -0.00034425, 0.00190713, 0.50281, 0.258463
615.90580212600002596, -0.00246833, -0.00260362, -0.000367393, 0.00195116, 0.50184, 0.258312
615.93911849300002359, -0.00246189, -0.00259836, -0.000387656, 0.00191344, 0.501503, 0.258223
615.97243479300004765, -0.0024615, -0.00259609, -0.000405966, 0.00177752, 0.502463, 0.258146
616.00575115899994216, -0.00246522, -0.00259268, -0.000430659, 0.00132857, 0.506304, 0.257745
616.03906159199993908, -0.00246356, -0.00258677, -0.000442869, 0.000913618, 0.509649, 0.257167
616.07237179599997035, -0.00246019, -0.00258127, -0.00045669, 0.000680907, 0.511317, 0.256975
616.10568193699998574, -0.00245835, -0.00256927, -0.000446836, 0.000164708, 0.514758, 0.255393
616.13899217300001965, -0.00245757, -0.00255947, -0.000421684, -0.000644968, 0.520312, 0.252422
616.17230240499998217, -0.00245895, -0.00255151, -0.000399098, -0.00112741, 0.523003, 0.25017
616.20576258100004452, -0.00246368, -0.00255436, -0.000394605, -0.00146085, 0.525646, 0.248859
616.23907274999999117, -0.00246149, -0.00257201, -0.000402235, -0.00171485, 0.530271, 0.248281
616.27238298700001451, -0.00246549, -0.00257502, -0.000366064, -0.00189871, 0.531147, 0.245235
616.3056931280000299, -0.00246824, -0.00257241, -0.00031267, -0.00192485, 0.529084, 0.241278
616.33900336499993955, -0.00247414, -0.00258035, -0.000257757, -0.00220966, 0.530192, 0.236087
616.37231359600002634, -0.00247888, -0.00258266, -0.000202645, -0.00233646, 0.529423, 0.231374
616.40562377100002323, -0.00248091, -0.00258567, -0.00016011, -0.00232499, 0.528743, 0.228016
616.43893397399995138, -0.00247648, -0.00258884, -0.000141851, -0.00193739, 0.527734, 0.227714
616.47224420600002759, -0.00246857, -0.00257157, -0.000127156, -0.00172151, 0.522603, 0.226999
616.50555437499997424, -0.00246442, -0.0025739, -0.000123237, -0.00135054, 0.522153, 0.227704
616.53886461199999758, -0.00245607, -0.00256131, -0.000126733, -0.00130802, 0.518726, 0.227783
616.57232478699995681, -0.0024508, -0.00257577, -0.000130521, -0.00108314, 0.521541, 0.228737
616.60563495700000658, -0.00244785, -0.00259747, -0.000135104, -0.000700648, 0.526038, 0.230091
616.63894516000004842, -0.00244137, -0.00259082, -0.000141268, -0.000571557, 0.524057, 0.230533
616.67225539699995807, -0.00243393, -0.00258882, -0.000131953, -0.000384299, 0.524326, 0.230468
616.7055655999999999, -0.00243336, -0.00259302, -0.000124109, -0.00017716, 0.525748, 0.230391
616.73887577400000737, -0.00243021, -0.00258829, -0.00012039, 0.000319374, 0.526473, 0.230485
616.77218600599996989, -0.0024302, -0.00259569, -0.000121929, 0.000839142, 0.528353, 0.23059
616.80549620900001173, -0.00243169, -0.00260459, -0.000120848, 0.00134729, 0.530535, 0.230675
616.83880641199993988, -0.00243528, -0.00261341, -0.000144131, 0.00151612, 0.530769, 0.23068
616.87211658199998965, -0.00244187, -0.00261526, -0.000163735, 0.00159441, 0.530596, 0.230272
616.90557679100004407, -0.00244377, -0.00263233, -0.000191555, 0.00177533, 0.531177, 0.22953
616.93888696600004096, -0.00244311, -0.00262159, -0.00020958, 0.00192732, 0.530367, 0.228663
616.97219719700001406, -0.00244387, -0.00261283, -0.000246296, 0.00187219, 0.529713, 0.227243
617.00550738599997658, -0.00244388, -0.00260915, -0.000285313, 0.00191897, 0.528688, 0.225626
617.03882332199998473, -0.0024388, -0.00259419, -0.000330343, 0.00168567, 0.528274, 0.223752
617.07213960900003258, -0.00244098, -0.00259197, -0.000370495, 0.00173403, 0.526788, 0.222076
617.10545591300001433, -0.00243912, -0.00257311, -0.000409504, 0.00159917, 0.526291, 0.220534
617.13877225199996701, -0.00243893, -0.00256532, -0.000424841, 0.00141649, 0.527126, 0.219915
617.17208864199994878, -0.00243404, -0.00254804, -0.000458598, 0.00111469, 0.528394, 0.218644
617.20540542300000197, -0.00243191, -0.00254863, -0.000480813, 0.00107216, 0.528166, 0.218109
617.23872130899997046, -0.0024314, -0.00253884, -0.000484037, 0.00081334, 0.529748, 0.217597
617.27218760899995686, -0.00243008, -0.00253828, -0.000473121, 0.000318959, 0.533196, 0.216773
617.30550397499996507, -0.00243211, -0.00254332, -0.000452185, -0.000169651, 0.536548, 0.215705
617.33882030899997062, -0.00243493, -0.0025522, -0.000431062, -0.000563763, 0.539438, 0.214324
617.37213664199998675, -0.00243589, -0.00254872, -0.000407086, -0.00100614, 0.54189, 0.212349
617.40545291299997643, -0.00243877, -0.00255184, -0.000372958, -0.00134629, 0.543613, 0.210007
617.43876927999997406, -0.00244256, -0.00254944, -0.00033058, -0.00149909, 0.543729, 0.207441
617.47208564200002456, -0.00244697, -0.00254607, -0.000296815, -0.00150532, 0.543, 0.205392
617.50540194699999574, -0.00245036, -0.00253977, -0.000280438, -0.00142949, 0.542098, 0.204543
617.53871830900004625, -0.00245094, -0.0025366, -0.00026793, -0.00102639, 0.540946, 0.204757
617.57203464199994869, -0.00244905, -0.00253798, -0.000261987, -0.000440006, 0.540955, 0.205857
617.60550097500004085, -0.00244724, -0.00254076, -0.000261125, -0.000101748, 0.541614, 0.206392
617.63881727499995122, -0.00244523, -0.00254334, -0.00026784, 0.000224322, 0.542551, 0.207573
617.67213361300002816, -0.00244694, -0.00255087, -0.000270657, 0.000613395, 0.544316, 0.208528
617.70544997499996498, -0.002445, -0.00255538, -0.00027501, 0.000902714, 0.545661, 0.209341
617.73876630899997053, -0.00244304, -0.00256452, -0.000274875, 0.00114599, 0.548009, 0.209708
617.77208261299995229, -0.00244209, -0.00257992, -0.000275461, 0.0014232, 0.551503, 0.210053
617.80539897500000279, -0.00243497, -0.00257825, -0.000276544, 0.00192759, 0.554854, 0.210266
617.83871527999997397, -0.00243732, -0.00258679, -0.000275626, 0.00222154, 0.5577, 0.210241
617.8720316090000324, -0.00243755, -0.00259459, -0.000271109, 0.00248705, 0.560315, 0.210099
617.90534794699999566, -0.00243776, -0.00259824, -0.000282315, 0.00302375, 0.564023, 0.209699
617.93866425099997741, -0.00243481, -0.00259536, -0.000301009, 0.00339072, 0.565939, 0.209167
617.97213060900003256, -0.0024314, -0.00259796, -0.000318445, 0.0037084, 0.567505, 0.208382
618.00544694200004869, -0.0024315, -0.00258978, -0.000335588, 0.00385386, 0.567801, 0.207399
618.03876327499995114, -0.00243233, -0.00257788, -0.00036022, 0.00387396, 0.567787, 0.206126
618.07207960899995669, -0.00243492, -0.00257148, -0.000383161, 0.00373132, 0.567537, 0.204965
618.10539597499996489, -0.00243018, -0.0025698, -0.000410816, 0.00341128, 0.566785, 0.203704
618.138712246999944, -0.00243209, -0.00256057, -0.000442805, 0.00324577, 0.566537, 0.201749
618.1720286129999522, -0.00243352, -0.00255252, -0.000481669, 0.0032849, 0.566107, 0.198895
618.20534497500000271, -0.00243164, -0.00253707, -0.000514506, 0.00337067, 0.566421, 0.196449
618.23866130800001883, -0.0024293, -0.00252032, -0.000542814, 0.00355158, 0.566876, 0.194264
618.27197764200002439, -0.00242396, -0.00250017, -0.000558086, 0.00327659, 0.568278, 0.193576
618.30544397999994999, -0.00242399, -0.00249989, -0.000571423, 0.00307512, 0.568227, 0.192777
618.33876030800001899, -0.0024238, -0.00249831, -0.000585463, 0.00307624, 0.568057, 0.191971
618.37207739400002993, -0.00242395, -0.00249458, -0.000590162, 0.00292357, 0.568472, 0.191658
618.40539297500004068, -0.00242326, -0.00249816, -0.000578715, 0.00239505, 0.569344, 0.191445
618.43870928000001186, -0.00242616, -0.00249836, -0.000568167, 0.00191195, 0.570321, 0.190984
618.47202560799996718, -0.00242958, -0.00250497, -0.000561858, 0.0014156, 0.570842, 0.190073
618.50534194199997273, -0.00243348, -0.00250985, -0.00054806, 0.00095418, 0.57125, 0.188974
618.53865828000004967, -0.00243386, -0.00251634, -0.00052216, 0.000547137, 0.571279, 0.188058
618.57197464199998649, -0.00243391, -0.00251454, -0.000501694, 0.000273363, 0.571511, 0.187017
618.60529094699995767, -0.00243652, -0.00250873, -0.000471072, 8.53259e-05, 0.571536, 0.185813
618.63860730800001875, -0.00243829, -0.00252049, -0.00043936, 9.23858e-05, 0.571746, 0.185097
618.67207364199998665, -0.00244204, -0.00252712, -0.00040389, 0.000128454, 0.572056, 0.184323
618.70538997500000278, -0.00244098, -0.00252538, -0.000378419, 0.00015611, 0.572084, 0.18375
618.73870630800001891, -0.00244265, -0.00251543, -0.00035984, 0.000258728, 0.572221, 0.183549
618.77202264200002446, -0.00244408, -0.00251118, -0.000344035, 0.000547775, 0.573102, 0.183774
618.80533897500004059, -0.00244247, -0.0025258, -0.000335138, 0.00107241, 0.575328, 0.184468
618.83865527499995096, -0.00244019, -0.00252953, -0.00033649, 0.00137357, 0.576496, 0.184927
618.8719716130000279, -0.00243006, -0.00252913, -0.000343635, 0.00159512, 0.577478, 0.185135
618.90528797499996472, -0.00242842, -0.00253293, -0.00033975, 0.00183739, 0.578741, 0.185232
618.93860428000004958, -0.00242566, -0.00254114, -0.000337964, 0.00228819, 0.581098, 0.185216
618.9719206419999864, -0.00242065, -0.00254682, -0.000341147, 0.00272463, 0.583376, 0.18484
619.00538691300005212, -0.00241529, -0.00255041, -0.000346386, 0.00301501, 0.584735, 0.184297
619.03870327499998893, -0.00240952, -0.0025456, -0.000363388, 0.00323626, 0.586137, 0.183183
619.07201964199998656, -0.00240832, -0.00254392, -0.000381, 0.00344567, 0.587324, 0.181767
619.10533597500000269, -0.00242701, -0.0024821, -0.000363737, 0.0036928, 0.592963, 0.181997
619.1386528460000136, -0.00242707, -0.00247787, -0.000382179, 0.00361868, 0.593359, 0.1805
619.17196864200002437, -0.00243174, -0.00247886, -0.00039448, 0.00364851, 0.593198, 0.179078
619.2052849750000405, -0.00243489, -0.00247565, -0.000414037, 0.00361314, 0.593292, 0.177217
619.23860128000001168, -0.00243539, -0.00247192, -0.000431995, 0.00343024, 0.59394, 0.176033
619.27191761300002781, -0.0024347, -0.00247234, -0.0004579, 0.00312437, 0.594173, 0.174453
619.30523397499996463, -0.00243139, -0.00246305, -0.00048975, 0.00308744, 0.594747, 0.171708
619.33855025599996225, -0.00242712, -0.00245269, -0.000487217, 0.00290479, 0.598077, 0.172753
619.37201660799996716, -0.0024251, -0.00244847, -0.000520961, 0.00274581, 0.598473, 0.170527
619.40533297499996479, -0.00242598, -0.00245753, -0.000561445, 0.00264983, 0.596007, 0.167523
619.43864927499998885, -0.00242683, -0.00246958, -0.000581064, 0.00263125, 0.593579, 0.165925
619.4719656129999521, -0.0024261, -0.00247594, -0.000585529, 0.0026625, 0.592444, 0.16555
619.5052819750000026, -0.00242681, -0.00247636, -0.00058477, 0.00250954, 0.592993, 0.165908
619.53859907499997917, -0.00242488, -0.00249845, -0.000543002, 0.00223426, 0.590989, 0.166924
619.57191461299998991, -0.00242555, -0.00250183, -0.000528325, 0.00200702, 0.590974, 0.167473
619.60523097500004042, -0.00242438, -0.00249989, -0.000560408, 0.00157377, 0.590651, 0.168227
619.63854730799994286, -0.00242591, -0.00250025, -0.00056496, 0.00155672, 0.590574, 0.168241
619.67186360799996692, -0.00242994, -0.00248144, -0.000590514, 0.00114781, 0.59047, 0.16913
619.70532997500004058, -0.00243013, -0.00250338, -0.000580403, 0.0011516, 0.589672, 0.168663
619.73864624600003026, -0.00243066, -0.00254049, -0.000566161, 0.000615378, 0.58716, 0.168122
619.77196264199994857, -0.00242274, -0.00253017, -0.000557923, 0.00042791, 0.586488, 0.167651
619.8052789749999647, -0.00241893, -0.00253348, -0.000543715, 0.000334279, 0.586136, 0.166526
619.83859528000004957, -0.00241051, -0.00255352, -0.000502388, 0.000167934, 0.585864, 0.162464
619.87191164599994408, -0.00240946, -0.00256696, -0.000489636, 0.000383736, 0.587413, 0.160866
619.90522797500000252, -0.00241026, -0.00258152, -0.000473944, 0.000574512, 0.588728, 0.158743
619.9385442799999737, -0.00241136, -0.00259379, -0.00041737, 0.000197002, 0.587013, 0.153385
619.9718606080000427, -0.00241563, -0.00258675, -0.0003763, -0.000126479, 0.584082, 0.149523
620.00517697500004033, -0.00241378, -0.0025871, -0.000384101, 0.000195262, 0.584534, 0.149137
620.0384932749999507, -0.00241295, -0.00257877, -0.00038781, -5.70989e-05, 0.584568, 0.150763
620.07195964200002436, -0.00241832, -0.00257794, -0.00041825, 5.16055e-05, 0.585248, 0.152188
620.10527594600000612, -0.00242126, -0.00257695, -0.000438718, 9.51447e-05, 0.585628, 0.152809
620.1385922509999773, -0.00241929, -0.00256393, -0.00047635, -2.41488e-05, 0.586625, 0.154355
620.17190860799996699, -0.00241965, -0.00254754, -0.000451724, -0.000212424, 0.586956, 0.155216
620.20522493700002542, -0.00242295, -0.00253053, -0.000471393, 0.000144304, 0.583792, 0.151927
620.23854130799998075, -0.00243139, -0.00252779, -0.000497222, 0.000285478, 0.582386, 0.150087
620.27185761299995193, -0.00243334, -0.00250707, -0.000503785, 7.22623e-05, 0.585508, 0.152027
620.30517397500000243, -0.00243341, -0.00250764, -0.000513217, 0.00019618, 0.582723, 0.149679
620.33849027999997361, -0.00243815, -0.00249121, -0.000532368, 7.49194e-05, 0.585115, 0.150189
620.37180664200002411, -0.00243395, -0.00247849, -0.000550582, -0.000112481, 0.591095, 0.152936
620.40527297500000259, -0.00242885, -0.00248443, -0.000529089, -0.00016008, 0.597484, 0.157479
620.43858930800001872, -0.00242435, -0.00250663, -0.000515967, -4.34521e-05, 0.590133, 0.154047
620.471905860999982, -0.00242468, -0.00248795, -0.000500001, -0.000152514, 0.60154, 0.160768
620.50522194099994522, -0.00242038, -0.00248164, -0.000483295, -0.00022357, 0.61086, 0.16662
620.53853828000001158, -0.00241342, -0.00251238, -0.000452345, -0.00010831, 0.602709, 0.162765
620.57185464099995897, -0.00240723, -0.00248631, -0.000452324, -0.000187215, 0.61287, 0.168651
620.60517094600004384, -0.00240725, -0.00249528, -0.000450626, -0.000147914, 0.607887, 0.165648
620.6384872800000494, -0.0024151, -0.00246995, -0.000466685, -0.000223791, 0.614185, 0.168964
620.67180360800000471, -0.00241955, -0.00244488, -0.000469218, -0.000258406, 0.617752, 0.170794
620.70511997500000234, -0.00242487, -0.00238544, -0.000487627, -0.000415355, 0.633356, 0.180577
620.73858628000004956, -0.00242585, -0.00232826, -0.000496716, -0.000535948, 0.646532, 0.189068
620.77190264099999695, -0.00243269, -0.00227208, -0.000512864, -0.000655919, 0.657862, 0.19603
620.80521970300003431, -0.00243537, -0.0022339, -0.000517182, -0.000714635, 0.664738, 0.200658
620.83853530800001863, -0.00243049, -0.00221356, -0.000500722, -0.000708015, 0.669547, 0.205003
620.87185164100003476, -0.00242418, -0.00219294, -0.000480161, -0.000690528, 0.674704, 0.209654
620.90516797500004031, -0.0024168, -0.0021712, -0.000460287, -0.000678312, 0.680126, 0.214561
620.93848428000001149, -0.00241315, -0.0021544, -0.000446524, -0.00065989, 0.683651, 0.21748
620.97180064099995889, -0.00240971, -0.00213894, -0.000435465, -0.000643976, 0.686799, 0.219942
621.00511694099998294, -0.00240548, -0.00212617, -0.000426935, -0.000631173, 0.689389, 0.221965
621.03843330799998057, -0.0024028, -0.00211519, -0.000425366, -0.000624919, 0.691168, 0.223084
621.0717496409999967, -0.00240031, -0.00210604, -0.000427378, -0.000626124, 0.69264, 0.22405
621.1052159749999646, -0.00240035, -0.00209878, -0.000430916, -0.000634414, 0.694051, 0.22532
621.13853227899994636, -0.00239985, -0.0020921, -0.000434924, -0.000644541, 0.695414, 0.226646
621.17184864099999686, -0.00240055, -0.00208826, -0.000441243, -0.000651087, 0.696004, 0.227089
621.20516491800003678, -0.0024029, -0.00208343, -0.000446953, -0.000665389, 0.697163, 0.228361
621.23848127899998417, -0.00240345, -0.00207658, -0.000452352, -0.000681932, 0.698713, 0.230195
621.2717976080000426, -0.00240432, -0.0020723, -0.000458275, -0.000692278, 0.699486, 0.23108
621.30511397500004023, -0.00240114, -0.00207081, -0.00046303, -0.00069536, 0.699614, 0.231184
621.338430451000022, -0.00239953, -0.00207037, -0.000467101, -0.000699462, 0.699712, 0.23131
621.37174660799996673, -0.00239863, -0.00206982, -0.000471775, -0.000703692, 0.6999, 0.231504
621.40506297499996435, -0.00239595, -0.0020697, -0.000477315, -0.000712354, 0.7003, 0.232068
621.43852931300000364, -0.00238912, -0.00207016, -0.000480907, -0.000718044, 0.700641, 0.232562
621.47184564099995896, -0.00238527, -0.00206873, -0.00048427, -0.00072697, 0.701332, 0.233497
621.50516197499996451, -0.00238598, -0.00206413, -0.000489199, -0.000741849, 0.70256, 0.235118
621.53847827899994627, -0.00238292, -0.00206076, -0.000493017, -0.00074925, 0.703239, 0.235998
621.5717946080000047, -0.00237927, -0.00205819, -0.00049691, -0.000752694, 0.703634, 0.236433
621.60511097500000233, -0.00237991, -0.00205594, -0.000502877, -0.000758953, 0.703997, 0.236888
621.63842730800001846, -0.0024006, -0.00205014, -0.000514559, -0.000772411, 0.704439, 0.23724
621.67174395099993944, -0.00242358, -0.00204423, -0.000523901, -0.000776591, 0.704513, 0.23702
621.70505993200004013, -0.00243372, -0.00203905, -0.000526647, -0.000777793, 0.705122, 0.23765
621.7383762790000219, -0.00244127, -0.00203595, -0.00052706, -0.000777347, 0.705691, 0.238331
621.77169299399997726, -0.00245043, -0.0020332, -0.000526926, -0.000778822, 0.706407, 0.239277
621.8051589750000403, -0.00245754, -0.00202999, -0.000527922, -0.000780737, 0.707017, 0.240009
621.83847527499995067, -0.00246372, -0.00202973, -0.000529116, -0.000782272, 0.707463, 0.240612
621.87179157900004611, -0.00247061, -0.00202967, -0.000530829, -0.000783646, 0.7077, 0.240947
621.90510794600004374, -0.00248127, -0.00203083, -0.000533306, -0.000784748, 0.707815, 0.241172
621.93842427899994618, -0.0024949, -0.00203141, -0.000535318, -0.00078968, 0.708296, 0.241892
621.97174062700003105, -0.00250479, -0.00203067, -0.000537435, -0.000794896, 0.708875, 0.242695
622.00505694100002074, -0.00252525, -0.00203646, -0.000541163, -0.000793257, 0.708117, 0.241701
622.0383732750000263, -0.00254275, -0.00203675, -0.000544314, -0.000798756, 0.708536, 0.24215
622.07168960800004243, -0.00254754, -0.00203259, -0.000565102, -0.000814978, 0.709258, 0.242981
622.10500597500004005, -0.00254691, -0.0020318, -0.000566623, -0.000820751, 0.710095, 0.243783
622.13847230800001853, -0.00253738, -0.00202314, -0.000561113, -0.000831168, 0.711571, 0.245507
622.17178861299998971, -0.0025301, -0.00201975, -0.000559601, -0.000833549, 0.711991, 0.245905
622.20510497500004021, -0.0025341, -0.00201638, -0.000566546, -0.000828527, 0.711128, 0.244623
622.23842130799994266, -0.00253328, -0.00201185, -0.000568141, -0.000833436, 0.711431, 0.244947
622.27173764099995878, -0.00253839, -0.00200829, -0.000575782, -0.000843444, 0.712032, 0.245891
622.30505394600004365, -0.00254253, -0.00201025, -0.000578919, -0.000864698, 0.714261, 0.248935
622.33837025100001483, -0.00254437, -0.00201626, -0.000564541, -0.000873097, 0.715689, 0.250417
622.3716866409999966, -0.00254855, -0.00202203, -0.000554613, -0.000896034, 0.718317, 0.253637
622.40500294599996778, -0.00254111, -0.00202584, -0.000547473, -0.00089608, 0.718085, 0.253104
622.43831927899998391, -0.00253787, -0.0020309, -0.000543998, -0.000887183, 0.717035, 0.251623
622.47163561299998946, -0.00254425, -0.00202616, -0.000559764, -0.00088163, 0.716975, 0.251952
622.50510194100002082, -0.0025526, -0.00202796, -0.000575473, -0.000855435, 0.71368, 0.248078
622.53841825100005281, -0.00255621, -0.00203213, -0.000577312, -0.000849224, 0.712509, 0.246667
622.57173458399995525, -0.00255905, -0.00203792, -0.000580979, -0.000851614, 0.713247, 0.247635
622.60505094600000575, -0.00256049, -0.00202992, -0.000579252, -0.000864651, 0.715669, 0.250509
622.63836730799994257, -0.00256202, -0.00201642, -0.00058228, -0.000888455, 0.719747, 0.255185
622.67168360799996663, -0.00255377, -0.00203548, -0.000561087, -0.000868757, 0.717763, 0.252661
622.70499997399997483, -0.00254696, -0.00203788, -0.000541848, -0.000866824, 0.716468, 0.251094
622.73831627399999888, -0.00254685, -0.00204104, -0.000532725, -0.000890621, 0.719278, 0.253652
622.77163264099999651, -0.00254565, -0.00204085, -0.000526358, -0.000909635, 0.721138, 0.255249
622.80494894100002057, -0.00253768, -0.00204679, -0.000507545, -0.000930349, 0.722597, 0.255944
622.83841527399999904, -0.00253173, -0.00204814, -0.000489484, -0.000936885, 0.722261, 0.25515
622.87173164099999667, -0.00252666, -0.00205209, -0.000477724, -0.000923768, 0.721257, 0.253864
622.90504794100002073, -0.00252388, -0.00205541, -0.000472981, -0.000892069, 0.719845, 0.252414
622.93836427899998398, -0.00251754, -0.00205241, -0.000469387, -0.000871399, 0.718712, 0.251385
622.97168060800004241, -0.00251, -0.00205755, -0.000464043, -0.000862941, 0.718815, 0.251403
623.00499694600000566, -0.00251443, -0.00205067, -0.000467695, -0.000951562, 0.721942, 0.253864
623.03831327900002179, -0.00251617, -0.00204815, -0.000468352, -0.00102084, 0.724501, 0.255733
623.07162961300002735, -0.0025144, -0.0020631, -0.00045832, -0.00093395, 0.721547, 0.254274
623.10494597399997474, -0.00251362, -0.00207958, -0.000450924, -0.000887557, 0.71967, 0.253775
623.13826230799998029, -0.00251953, -0.00209913, -0.000453181, -0.000881604, 0.717762, 0.253264
623.17157861299995147, -0.00251786, -0.00210524, -0.000443548, -0.000883989, 0.718517, 0.254322
623.2050449739999749, -0.00251696, -0.00210084, -0.000441058, -0.000900011, 0.721154, 0.255212
623.23836127899994608, -0.00251354, -0.00210281, -0.000426846, -0.000866597, 0.721798, 0.256445
623.27167760800000451, -0.00251194, -0.00210216, -0.000414192, -0.000844107, 0.724711, 0.25815
623.30499569300002349, -0.00251191, -0.0021071, -0.000406936, -0.000820696, 0.723163, 0.258634
623.33831027899998389, -0.00251282, -0.00212162, -0.000400075, -0.000784993, 0.714581, 0.258091
623.3716266410000344, -0.0025137, -0.0021284, -0.00040062, -0.000792271, 0.710687, 0.257708
623.40494297400005053, -0.00251907, -0.00212972, -0.000413699, -0.000900462, 0.711521, 0.256169
623.43825930799994239, -0.00252208, -0.00213325, -0.00042217, -0.000984885, 0.711903, 0.255384
623.47157560799996645, -0.00252921, -0.00212928, -0.000453621, -0.00122138, 0.706875, 0.248948
623.50489194099998258, -0.00253268, -0.00213538, -0.00046038, -0.0013342, 0.70109, 0.246934
623.53835830799994255, -0.00253492, -0.00213288, -0.000465619, -0.00136747, 0.697095, 0.245005
623.57167464099995868, -0.0025372, -0.00213131, -0.000467863, -0.00139294, 0.687045, 0.242401
623.60499094099998274, -0.00253873, -0.00213257, -0.000472059, -0.00147858, 0.677242, 0.239512
623.63830730799998037, -0.0025453, -0.00213719, -0.000487001, -0.00169841, 0.673189, 0.23617
623.6716236409999965, -0.00254734, -0.00211729, -0.000519184, -0.00176547, 0.700799, 0.232478
623.70493994599996768, -0.00254878, -0.00211506, -0.000531758, -0.00186829, 0.706617, 0.230731
623.73825630800001818, -0.00255121, -0.00211578, -0.000537634, -0.00196605, 0.702066, 0.228943
623.77157261199999994, -0.0025514, -0.00211149, -0.000539331, -0.00199234, 0.693407, 0.227224
623.80488897400005044, -0.00255459, -0.00210916, -0.000557109, -0.00222873, 0.68656, 0.222804
623.83820527399996081, -0.00255254, -0.00209408, -0.000573266, -0.00232213, 0.68234, 0.218388
623.87167164100003447, -0.00255287, -0.00208843, -0.000578562, -0.00237198, 0.675018, 0.21647
623.9049879740000506, -0.0025544, -0.00209163, -0.000582437, -0.00249889, 0.663308, 0.214943
623.93830430799994247, -0.0025553, -0.00208667, -0.00059976, -0.00263082, 0.660686, 0.212125
623.97162061200003791, -0.00255727, -0.00208753, -0.000605719, -0.00263651, 0.673339, 0.212435
624.00493696000000909, -0.00256288, -0.00210047, -0.000611065, -0.00278882, 0.670293, 0.212349
624.03825324599995383, -0.002562, -0.00209864, -0.000608227, -0.00276035, 0.665377, 0.212341
624.07156964099999641, -0.00256311, -0.00210398, -0.000606507, -0.00278924, 0.662676, 0.212592
624.10488598899996759, -0.00256435, -0.00211182, -0.000602417, -0.00282919, 0.664322, 0.213067
624.1382022740000366, -0.0025646, -0.00211247, -0.000606015, -0.00282673, 0.666703, 0.213395
624.17151860800004215, -0.00256489, -0.00211111, -0.00061475, -0.00279716, 0.66766, 0.213821
624.20483499299996311, -0.0025658, -0.00211165, -0.00061787, -0.00280193, 0.669263, 0.213951
624.23830130800001825, -0.00256756, -0.00211635, -0.000620013, -0.00281301, 0.670133, 0.214142
624.27161764100003438, -0.00257052, -0.00212308, -0.000623994, -0.00277652, 0.669786, 0.214852
624.30493394099994475, -0.00257188, -0.0021265, -0.000626563, -0.00279343, 0.67192, 0.214936
624.33825027900002169, -0.00257252, -0.00213042, -0.000622636, -0.00290733, 0.674832, 0.213707
624.37156660799996644, -0.00257499, -0.00214228, -0.000619699, -0.00291213, 0.676138, 0.213046
624.40488294600004338, -0.00257816, -0.00214676, -0.000619234, -0.00284782, 0.676302, 0.213352
624.4381992739999987, -0.0025785, -0.00214066, -0.000622341, -0.002645, 0.669074, 0.215516
624.47151561199996195, -0.00257871, -0.00214124, -0.000616536, -0.00262991, 0.663012, 0.214901
624.50483197400001245, -0.00257933, -0.00213898, -0.000611311, -0.00263512, 0.656992, 0.214294
624.53814830800001801, -0.00257896, -0.00213894, -0.000610273, -0.00253078, 0.653075, 0.214672
624.57161461199996211, -0.0025802, -0.00215098, -0.000602978, -0.00268969, 0.660623, 0.210445
624.60493094599996766, -0.00258015, -0.00216595, -0.000581911, -0.00283414, 0.659671, 0.202792
624.63824730800001817, -0.00258394, -0.00220965, -0.000549157, -0.00271842, 0.667545, 0.188495
624.67156364100003429, -0.00258345, -0.00221516, -0.000541231, -0.00290874, 0.67291, 0.184557
624.70487997400005042, -0.00258283, -0.00221615, -0.000539092, -0.0029616, 0.676252, 0.183539
624.73819630799994229, -0.00258264, -0.00222478, -0.000542811, -0.00270219, 0.688471, 0.18394
624.77151261200003773, -0.00258301, -0.00223391, -0.000531231, -0.00296758, 0.700592, 0.177339
624.80482894600004329, -0.00258347, -0.00223847, -0.000517202, -0.00338124, 0.707696, 0.17033
624.8381453079999801, -0.00258558, -0.00224619, -0.000508122, -0.0035499, 0.719267, 0.164921
624.87146164099999623, -0.00258574, -0.00224586, -0.000507319, -0.00357201, 0.719756, 0.164631
624.90477792699994097, -0.00258284, -0.00223691, -0.000502094, -0.00397437, 0.711994, 0.162965
624.93824430699999084, -0.00257943, -0.00223161, -0.000501142, -0.00416383, 0.708058, 0.162567
624.97156064099999639, -0.00257756, -0.00223038, -0.000504724, -0.00406569, 0.707834, 0.163929
625.00487694100002045, -0.00257322, -0.00222502, -0.000508544, -0.00421774, 0.70712, 0.164922
625.03819327400003658, -0.00257241, -0.00222839, -0.000510359, -0.00414178, 0.714742, 0.164827
625.07150964100003421, -0.00257137, -0.00222727, -0.000514634, -0.00412493, 0.715876, 0.16596
625.10482597400005034, -0.00257071, -0.00222326, -0.000525523, -0.00416082, 0.717308, 0.168632
625.13814230699995278, -0.00256915, -0.00222074, -0.00053936, -0.00405039, 0.71678, 0.172566
625.17145860699997684, -0.00256772, -0.00221867, -0.000547501, -0.0039937, 0.715222, 0.174974
625.20477553099999568, -0.00257123, -0.00222031, -0.000566288, -0.00358299, 0.713613, 0.180265
625.23809130699999059, -0.00257094, -0.00221712, -0.000582686, -0.00341965, 0.706194, 0.184462
625.27155758399999286, -0.00257233, -0.00221768, -0.000586548, -0.00331861, 0.704027, 0.185709
625.30487397399997462, -0.00257358, -0.00221851, -0.000598539, -0.00314647, 0.701221, 0.18838
625.33819027399999868, -0.00257625, -0.00222078, -0.000609424, -0.00293761, 0.700653, 0.190444
625.37150664099999631, -0.00257639, -0.00221844, -0.000613588, -0.00295575, 0.697873, 0.191177
625.40482297400001244, -0.0025773, -0.00221599, -0.000623033, -0.00290956, 0.691751, 0.192668
625.43813927899998362, -0.00257689, -0.0022133, -0.000649164, -0.00271388, 0.676057, 0.196488
625.47145560700005262, -0.00257749, -0.00221127, -0.000668809, -0.0025812, 0.669359, 0.199498
625.50477197400005025, -0.002578, -0.00220973, -0.000673076, -0.00258302, 0.667493, 0.200129
625.53808827399996062, -0.00257565, -0.00220487, -0.000698968, -0.00247407, 0.657936, 0.203866
625.57140460699997675, -0.00257357, -0.00220041, -0.000717963, -0.00245638, 0.652954, 0.206737
625.60472097399997438, -0.00257141, -0.00218911, -0.000740071, -0.00256663, 0.639009, 0.209871
625.63818725999999515, -0.00257061, -0.00218333, -0.000746426, -0.0026433, 0.632427, 0.210723
625.67150364099995841, -0.00256174, -0.00214573, -0.000763475, -0.0034261, 0.603585, 0.213348
625.70481994099998246, -0.00256157, -0.00214108, -0.000769847, -0.00355899, 0.604797, 0.214448
625.73813627399999859, -0.00256076, -0.00213217, -0.000772326, -0.00381256, 0.598011, 0.215042
625.77145260700001472, -0.00256087, -0.00212546, -0.000768461, -0.00401164, 0.592524, 0.214465
625.80476894499997798, -0.00256168, -0.00211544, -0.000769076, -0.00434918, 0.588077, 0.214686
625.83808530700002848, -0.00256022, -0.00210858, -0.000773666, -0.00452728, 0.586904, 0.215721
625.87140161199999966, -0.00255995, -0.00209972, -0.00077433, -0.00481065, 0.582587, 0.216254
625.90471794500001579, -0.00255909, -0.00209603, -0.000772406, -0.00497662, 0.581486, 0.215887
625.93803424500003985, -0.00256016, -0.00209605, -0.000773245, -0.00491635, 0.576383, 0.216858
625.97150061199999982, -0.00256135, -0.00209715, -0.000778972, -0.00474233, 0.571777, 0.219379
626.00481694099994456, -0.00256454, -0.00209556, -0.000780384, -0.00475621, 0.565562, 0.221051
626.03813330699995277, -0.00256572, -0.0020986, -0.000781769, -0.00458914, 0.566009, 0.221667
626.07144961200003763, -0.00256837, -0.00209192, -0.000787174, -0.0046517, 0.555683, 0.226677
626.10476597399997445, -0.00257084, -0.0020889, -0.000788737, -0.00466932, 0.550972, 0.228937
626.13808227399999851, -0.00257339, -0.00208682, -0.000787089, -0.00483765, 0.543033, 0.229872
626.17139860700001464, -0.00257573, -0.00208765, -0.000787582, -0.00480341, 0.536731, 0.232042
626.20471494100002019, -0.00257708, -0.00208949, -0.0007904, -0.0047025, 0.538855, 0.231919
626.23803124500000195, -0.0025759, -0.0020936, -0.000791447, -0.00456627, 0.535238, 0.23275
626.27134760700005245, -0.00257555, -0.00209529, -0.00079481, -0.0044674, 0.526919, 0.237839
626.30466464100004487, -0.00257524, -0.00210124, -0.000798895, -0.00397945, 0.52286, 0.240724
626.3381302789999836, -0.00257393, -0.00210428, -0.000800315, -0.00371786, 0.521558, 0.241345
626.37144664100003411, -0.00257303, -0.00210703, -0.000799215, -0.00367476, 0.521221, 0.238931
626.40476297400005024, -0.00256937, -0.00210896, -0.000798759, -0.00359505, 0.526791, 0.234829
626.43807924999998704, -0.00256541, -0.00210977, -0.000799076, -0.00344278, 0.532013, 0.232702
626.47139564099995823, -0.00256463, -0.00211039, -0.000795907, -0.00338944, 0.532296, 0.229968
626.50471197399997436, -0.00256064, -0.00211128, -0.000793404, -0.00341572, 0.53383, 0.226141
626.53802827399999842, -0.00255676, -0.00210775, -0.000793916, -0.00357212, 0.537055, 0.226019
626.57134464099999605, -0.00255225, -0.00210723, -0.000795398, -0.00313139, 0.536877, 0.22697
626.60466097400001217, -0.00255073, -0.00210737, -0.000795688, -0.00296906, 0.536563, 0.227419
626.63797727400003623, -0.00254759, -0.00210497, -0.000791817, -0.00317617, 0.539108, 0.224935
626.67144361199996183, -0.00254522, -0.00210405, -0.000788955, -0.00331896, 0.538538, 0.22387
626.70475997400001233, -0.00254364, -0.00210354, -0.000787449, -0.00349187, 0.536723, 0.223372
626.73807628299994121, -0.00254052, -0.00210143, -0.00078726, -0.00335754, 0.542725, 0.223808
626.77139261199999964, -0.00253923, -0.00210002, -0.000786237, -0.00341236, 0.543534, 0.223799
626.80470897400005015, -0.00253822, -0.00209897, -0.000787573, -0.00360904, 0.540911, 0.22521
626.83802530699995259, -0.00253796, -0.0020985, -0.000787657, -0.00372152, 0.539142, 0.226393
626.87134160699997665, -0.00253798, -0.00209848, -0.000788259, -0.0039684, 0.533831, 0.228362
626.9046579449999399, -0.00253858, -0.00210091, -0.000795263, -0.00374922, 0.529019, 0.234223
626.93797427399999833, -0.00253999, -0.00210179, -0.000799042, -0.0040864, 0.520738, 0.237723
626.97129060700001446, -0.00253814, -0.00210305, -0.000803094, -0.00439369, 0.512821, 0.24276
627.00475697399997443, -0.0025394, -0.00210411, -0.000806428, -0.00424888, 0.511844, 0.245208
627.03807330699999056, -0.00254033, -0.00210467, -0.000807603, -0.00444166, 0.507243, 0.246244
627.07138964099999612, -0.00254516, -0.00210921, -0.000818388, -0.00418395, 0.500804, 0.251635
627.10470597400001225, -0.00254986, -0.00211356, -0.000825882, -0.00388051, 0.497178, 0.255972
627.13802227899998343, -0.00255043, -0.00211721, -0.00083326, -0.0038074, 0.491319, 0.258513
627.17133861199999956, -0.00255031, -0.00211985, -0.000841381, -0.00392135, 0.482582, 0.261067
627.20465494500001569, -0.00255084, -0.00212271, -0.000851251, -0.00367829, 0.479154, 0.265449
627.2379713069999525, -0.00254896, -0.0021262, -0.000863596, -0.00430582, 0.460692, 0.267229
627.27128763999996863, -0.00254864, -0.0021269, -0.000865761, -0.00433969, 0.458141, 0.26784
627.30460397399997419, -0.00254908, -0.00212924, -0.000873182, -0.00427944, 0.454063, 0.270261
627.33792030699999032, -0.00254869, -0.00212886, -0.000878737, -0.00459472, 0.44899, 0.272783
627.37138661200003753, -0.00254727, -0.0021288, -0.00088444, -0.00492609, 0.443028, 0.275119
627.40470291700000871, -0.00254579, -0.00212854, -0.000887709, -0.00510309, 0.439746, 0.276568
627.4380192739999984, -0.00254589, -0.00212766, -0.000891212, -0.00560631, 0.431867, 0.277227
627.47133560700001453, -0.00254705, -0.00213216, -0.000898946, -0.00554969, 0.424221, 0.278612
627.50465197400001216, -0.00254868, -0.00213715, -0.000905565, -0.00525277, 0.421238, 0.280463
627.53796830700002829, -0.0025475, -0.00213372, -0.000905111, -0.00571694, 0.419079, 0.280353
627.57128461199999947, -0.00254697, -0.00213268, -0.000904913, -0.00597253, 0.416931, 0.279882
627.60460096899998916, -0.00254642, -0.00213278, -0.000905533, -0.00623916, 0.413435, 0.280125
627.63791727399996034, -0.00254671, -0.002134, -0.000905473, -0.00609381, 0.412907, 0.28017
627.67123363999996855, -0.00254769, -0.00213646, -0.000904875, -0.00586727, 0.41174, 0.279896
627.70469997400005013, -0.00254829, -0.00213878, -0.000906396, -0.00546956, 0.413426, 0.281529
627.7380162739999605, -0.00254864, -0.00213962, -0.000906633, -0.00532908, 0.414202, 0.282122
627.77133263999996871, -0.00255045, -0.00213926, -0.000905528, -0.00550186, 0.413435, 0.281573
627.80464954499996111, -0.0025509, -0.00213946, -0.000899595, -0.00608427, 0.410787, 0.276629
627.83796527799995602, -0.00255123, -0.00214155, -0.000903202, -0.00553926, 0.411997, 0.279377
627.87128164000000652, -0.00255099, -0.00214247, -0.000906242, -0.00520737, 0.413076, 0.280668
627.90459791700004644, -0.00254984, -0.00214277, -0.000907457, -0.00469529, 0.417329, 0.280672
627.9379143070000282, -0.00254996, -0.00214175, -0.000910856, -0.00428011, 0.424358, 0.281251
627.97123064499999145, -0.00254842, -0.00214406, -0.000914435, -0.00363885, 0.429439, 0.28288
628.00454697400004989, -0.00254546, -0.00214148, -0.000916376, -0.00251503, 0.440248, 0.280607
628.03786327800003164, -0.00254397, -0.00213779, -0.00091807, -0.00245852, 0.445386, 0.279223
628.07132958299996517, -0.00254349, -0.00213646, -0.000918522, -0.00244844, 0.447256, 0.2785
628.10464597400005005, -0.00254284, -0.00213453, -0.000919417, -0.0021435, 0.45123, 0.277465
628.13796227399996042, -0.00254186, -0.00213102, -0.00091893, -0.00216817, 0.456223, 0.273626
628.17127861200003736, -0.0025405, -0.00213058, -0.000917654, -0.00243282, 0.456025, 0.271031
628.2045949449999398, -0.00253966, -0.0021305, -0.000917109, -0.00285091, 0.454795, 0.269848
628.2379113069999903, -0.00253982, -0.00212913, -0.000917242, -0.00279382, 0.456544, 0.269237
628.27122760700001436, -0.00253827, -0.0021273, -0.000911296, -0.00329946, 0.457506, 0.259248
628.30454397400001199, -0.00253801, -0.00212774, -0.000909451, -0.00356553, 0.455369, 0.256826
628.33786030700002811, -0.00253687, -0.00212671, -0.00090794, -0.00380938, 0.456395, 0.255228
628.37117664000004424, -0.00253618, -0.00212684, -0.000908034, -0.00416714, 0.455433, 0.254473
628.40464294499997777, -0.00253365, -0.00212756, -0.000912596, -0.00438397, 0.455287, 0.257683
628.43795930700002828, -0.00253358, -0.00212757, -0.00091259, -0.0044176, 0.455088, 0.257731
628.47127565899995716, -0.00253364, -0.00212842, -0.000915079, -0.00436356, 0.453911, 0.259236
628.50459194500001558, -0.00253485, -0.00213003, -0.000919717, -0.00414903, 0.45365, 0.261914
628.5379083069999524, -0.00253529, -0.00213115, -0.000922914, -0.00384414, 0.454753, 0.264556
628.57122460699997646, -0.00253736, -0.00213318, -0.000926196, -0.00348891, 0.455261, 0.265925
628.60454094499993971, -0.00253791, -0.00213562, -0.000931935, -0.00339433, 0.453388, 0.268044
628.63785730699999021, -0.0025387, -0.00213798, -0.000936557, -0.00328797, 0.451789, 0.269661
628.67117360700001427, -0.00253908, -0.00214006, -0.000942728, -0.00319937, 0.450095, 0.271405
628.7044899740000119, -0.00254117, -0.00214633, -0.00095844, -0.00264053, 0.447553, 0.275935
628.73780630700002803, -0.00254322, -0.00215255, -0.000974819, -0.00216283, 0.445968, 0.280822
628.7712726400000065, -0.00254371, -0.0021545, -0.000978945, -0.00197448, 0.445477, 0.281994
628.80458894499997768, -0.00254475, -0.00215625, -0.000981551, -0.00172332, 0.445825, 0.282936
628.83790527799999381, -0.00254473, -0.0021574, -0.000984718, -0.00164976, 0.444903, 0.283392
628.87122165499999937, -0.00254422, -0.00216288, -0.00100181, -0.00138617, 0.440609, 0.286126
628.90453797400004987, -0.00254461, -0.00216598, -0.00100993, -0.00116387, 0.439818, 0.28791
628.93785430699995231, -0.00254115, -0.00216792, -0.001022, -0.00134309, 0.432587, 0.287994
628.97117060699997637, -0.0025383, -0.00216737, -0.00102812, -0.0016481, 0.426345, 0.286891
629.004486973999974, -0.00253759, -0.00216812, -0.00103273, -0.00185326, 0.423209, 0.286999
629.03780330699999013, -0.00253606, -0.00216909, -0.00103691, -0.001923, 0.421456, 0.287468
629.07111960700001418, -0.00253756, -0.00216938, -0.00103572, -0.00187837, 0.422417, 0.287437
629.10458597399997416, -0.00253955, -0.00216926, -0.00103114, -0.00174601, 0.425953, 0.287541
629.13790227399999822, -0.00253986, -0.00216859, -0.00102808, -0.00160487, 0.427196, 0.287237
629.17121864000000642, -0.00254, -0.00216838, -0.00102757, -0.00166226, 0.42835, 0.287581
629.20453497400001197, -0.00254125, -0.0021686, -0.00102816, -0.00170814, 0.42866, 0.287936
629.23785127400003603, -0.00254214, -0.00216994, -0.00102912, -0.00160003, 0.429073, 0.28841
629.27116764000004423, -0.00254291, -0.00216965, -0.0010292, -0.00162793, 0.4294, 0.288348
629.30448397400004978, -0.00254346, -0.00217016, -0.00102961, -0.00162992, 0.429684, 0.288357
629.33780030699995223, -0.00254284, -0.00217063, -0.00102984, -0.00148326, 0.431137, 0.288684
629.37111660699997628, -0.00254026, -0.00217013, -0.00102996, -0.00133478, 0.433464, 0.288935
629.40443293999999241, -0.00253847, -0.00216904, -0.00103051, -0.00135579, 0.434884, 0.289056
629.43774930699999004, -0.00253833, -0.00216953, -0.00103157, -0.00125768, 0.435282, 0.289859
629.47121560699997644, -0.00253896, -0.00217127, -0.00103338, -0.00104639, 0.436293, 0.29054
629.50453197299998465, -0.00253858, -0.00217166, -0.00103321, -0.000954665, 0.436697, 0.290434
629.53784827799995583, -0.00253792, -0.00217225, -0.00103359, -0.0008155, 0.437198, 0.290647
629.57116460700001426, -0.00253604, -0.00217144, -0.00103639, -0.000562029, 0.439705, 0.29204
629.60448097300002246, -0.0025295, -0.00216848, -0.0010408, -0.000209802, 0.445937, 0.29231
629.63779727300004652, -0.00252341, -0.00216557, -0.00104593, -5.1452e-05, 0.452627, 0.291034
629.67111360700005207, -0.00252103, -0.00216357, -0.0010488, 0.000103639, 0.455273, 0.291568
629.70442994500001532, -0.00251762, -0.00216058, -0.00105283, 0.000112821, 0.458718, 0.291289
629.73774627299997064, -0.00251316, -0.00215663, -0.0010574, -0.000167987, 0.461754, 0.289831
629.77106263999996827, -0.00251006, -0.00215372, -0.00106252, -0.000222522, 0.466367, 0.289001
629.80452898299995468, -0.00250469, -0.00215078, -0.00106686, 0.000207273, 0.472326, 0.28676
629.83784524500003954, -0.00250108, -0.0021476, -0.00107001, 0.000499747, 0.475925, 0.284919
629.87116161200003717, -0.00249953, -0.00214472, -0.001073, 0.000901117, 0.479588, 0.284641
629.9044779450000533, -0.0024978, -0.00214159, -0.00107697, 0.0010356, 0.482791, 0.283605
629.93779433099996368, -0.00249886, -0.00213641, -0.00108047, 0.00126226, 0.486116, 0.283387
629.97111064000000624, -0.00249857, -0.00213563, -0.00108082, 0.00121603, 0.486785, 0.283155
630.00442697300002237, -0.00249804, -0.00213715, -0.00108218, 0.000863152, 0.485273, 0.28278
630.03774330700002793, -0.00249897, -0.00213503, -0.00108525, 0.000844317, 0.485694, 0.28368
630.07105961100000968, -0.00250041, -0.00213693, -0.00108505, 0.000979695, 0.48504, 0.283956
630.10437593999995443, -0.00249993, -0.00213717, -0.00108592, 0.000949232, 0.485141, 0.281736
630.13784230700002809, -0.00249836, -0.00213395, -0.00108761, 0.00104749, 0.48763, 0.280298
630.17115864000004422, -0.00249951, -0.0021342, -0.0010864, 0.000821503, 0.487445, 0.280226
630.20447497299994666, -0.00250069, -0.00213442, -0.0010849, 0.000755819, 0.487216, 0.281238
630.23779130699995221, -0.00250067, -0.00213285, -0.00108373, 0.000986626, 0.488738, 0.282608
630.27110760699997627, -0.00250062, -0.00213235, -0.00108593, 0.00120973, 0.489553, 0.284033
630.3044239399999924, -0.00250081, -0.00213399, -0.00108935, 0.00132771, 0.49038, 0.286404
630.33774030699999003, -0.00250159, -0.00213592, -0.00109055, 0.00143139, 0.489633, 0.287654
630.37105661099997178, -0.00250207, -0.002136, -0.00109404, 0.00165222, 0.489206, 0.288032
630.40437297300002228, -0.00250288, -0.00214102, -0.00109875, 0.0016058, 0.487727, 0.289492
630.43768930700002784, -0.00250414, -0.00214554, -0.0011028, 0.00164819, 0.48734, 0.291499
630.47100564000004397, -0.00250777, -0.00215048, -0.00110551, 0.0018529, 0.487815, 0.293467
630.50447194000003037, -0.00250831, -0.00215535, -0.00110972, 0.00184345, 0.487053, 0.294763
630.537788307000028, -0.00250855, -0.00215661, -0.00111099, 0.00184157, 0.486554, 0.295007
630.57110464000004413, -0.00251056, -0.00216255, -0.00111699, 0.00184007, 0.483911, 0.296283
630.60442097299994657, -0.00251579, -0.00216868, -0.00112313, 0.00180846, 0.481115, 0.297567
630.63773727800003144, -0.00251728, -0.0021723, -0.0011286, 0.00164366, 0.478713, 0.298014
630.67105397299997094, -0.00251833, -0.00217412, -0.00113273, 0.00159375, 0.477613, 0.298456
630.70436997299998438, -0.00251934, -0.0021773, -0.00113707, 0.00118848, 0.474555, 0.298447
630.73768630699998994, -0.00252132, -0.00218031, -0.00114306, 0.000902305, 0.471693, 0.298655
630.77100264000000607, -0.00252197, -0.00218115, -0.00114527, 0.000851995, 0.471049, 0.298819
630.80431894499997725, -0.00252434, -0.0021847, -0.00115227, 0.000903771, 0.469275, 0.299992
630.83778527799995572, -0.00252654, -0.00218926, -0.00116058, 0.000907845, 0.466639, 0.301005
630.87110161099997185, -0.00252906, -0.002192, -0.00116531, 0.000862055, 0.464908, 0.301479
630.90441794000003028, -0.00253088, -0.0021943, -0.00116887, 0.000961061, 0.463976, 0.302367
630.93773427300004641, -0.00253199, -0.00219669, -0.00117355, 0.00100902, 0.462219, 0.302902
630.97105064000004404, -0.00253248, -0.00219787, -0.00117683, 0.000967507, 0.460953, 0.303155
631.00436693999995441, -0.00253263, -0.00219642, -0.0011785, 0.00113005, 0.460195, 0.303189
631.03767980800000714, -0.00253294, -0.0021951, -0.00118024, 0.00126523, 0.460123, 0.303525
631.07099227699995936, -0.00253325, -0.00219606, -0.00118185, 0.00143021, 0.460528, 0.304213
631.10430477900001733, -0.00253408, -0.002197, -0.001183, 0.00163666, 0.461584, 0.305122
631.13761721900004886, -0.00253483, -0.00219777, -0.00118423, 0.00171668, 0.462013, 0.305798
631.17092968299994027, -0.00253588, -0.00219883, -0.00118654, 0.00153868, 0.460942, 0.30598
631.2043922200000452, -0.0025365, -0.00219899, -0.00118665, 0.00147975, 0.461605, 0.306391
631.2377046369999789, -0.00253698, -0.00219826, -0.00118582, 0.00135801, 0.46191, 0.306192
631.27101707700001043, -0.00253667, -0.00219849, -0.00118515, 0.00135964, 0.462717, 0.306212
631.30432995900002879, -0.00253563, -0.00219772, -0.00118308, 0.00119955, 0.463487, 0.305623
631.33764200899997832, -0.00253572, -0.00219695, -0.00118196, 0.0013505, 0.463873, 0.306091
631.37095451100003629, -0.00253653, -0.00219675, -0.00118284, 0.00160795, 0.463539, 0.306616
631.40426691799996206, -0.00253568, -0.00219586, -0.00118137, 0.00154512, 0.46535, 0.3056
631.43757941499995923, -0.00253628, -0.00219608, -0.00118152, 0.00133301, 0.465479, 0.304771
631.4708919170000172, -0.00254028, -0.0022012, -0.00117877, 0.000885786, 0.465324, 0.304101
631.50420438599996942, -0.00254162, -0.00220375, -0.00118093, 0.000832073, 0.463768, 0.305298
631.53766683699996065, -0.00253952, -0.00220775, -0.00118663, 0.0008795, 0.463044, 0.307889
631.57097924400000011, -0.00254155, -0.00220893, -0.0011889, 0.000981339, 0.462929, 0.308557
631.6042917459999444, -0.00254151, -0.00220971, -0.00119038, 0.00104926, 0.462301, 0.308863
631.63760421400002087, -0.00254219, -0.00221048, -0.00119254, 0.00112652, 0.462264, 0.309479
631.67091671100001804, -0.00254294, -0.00221221, -0.0011947, 0.00126674, 0.462133, 0.310065
631.70422917999997026, -0.00254464, -0.00221327, -0.00119618, 0.00135982, 0.460872, 0.310373
631.73754164900003616, -0.00254551, -0.0022137, -0.00119958, 0.00134182, 0.458588, 0.31062
631.77085419800005184, -0.00254645, -0.00221446, -0.00120093, 0.00153132, 0.458277, 0.310555
631.80416658599995117, -0.00254888, -0.00221458, -0.00120299, 0.00160312, 0.458067, 0.31058
631.83747905500001707, -0.0025485, -0.00221512, -0.00120397, 0.00171338, 0.458224, 0.311053
631.87094147699997393, -0.00254719, -0.00221471, -0.0012017, 0.00170313, 0.459144, 0.310674
631.90425394099997902, -0.00254787, -0.00221479, -0.00120062, 0.00168463, 0.459203, 0.310748
631.93756641400000262, -0.00254872, -0.00221424, -0.00119942, 0.00166846, 0.459378, 0.310128
631.97087891199998921, -0.00255199, -0.0022134, -0.00119985, 0.00161441, 0.458174, 0.309623
632.00419137999995201, -0.00255469, -0.00221353, -0.00119965, 0.00159893, 0.457152, 0.309456
632.03750727900001039, -0.00255773, -0.00221341, -0.00120011, 0.00161783, 0.455986, 0.309232
632.07082360599997628, -0.00256103, -0.00221441, -0.00120167, 0.00158624, 0.453992, 0.309862
632.10413997299997391, -0.00256387, -0.00221509, -0.00120288, 0.0016211, 0.452634, 0.310482
632.13745787300001666, -0.00256484, -0.00221537, -0.00120373, 0.00161628, 0.452692, 0.310568
632.17077263999999559, -0.00256255, -0.00221341, -0.00120288, 0.00147658, 0.453646, 0.309937
632.20408894499996677, -0.0025627, -0.00221363, -0.00120157, 0.00124808, 0.453456, 0.309808
632.23755527799994525, -0.00256337, -0.00221271, -0.0012016, 0.00132104, 0.453925, 0.309489
632.27087163999999575, -0.00256476, -0.00221243, -0.00120217, 0.00152505, 0.454028, 0.309628
632.30418794000001981, -0.00256569, -0.00221322, -0.00120276, 0.00163036, 0.45384, 0.309595
632.33750430600002801, -0.00256603, -0.00221226, -0.00120292, 0.00174634, 0.453903, 0.308966
632.37082064000003356, -0.00256578, -0.00221213, -0.00120322, 0.00179109, 0.454104, 0.308846
632.40413694400001532, -0.002566, -0.0022106, -0.00120339, 0.00183238, 0.45449, 0.308057
632.43745327800002087, -0.00256608, -0.0022099, -0.00120405, 0.00180091, 0.455024, 0.308331
632.470769611000037, -0.00256443, -0.00220984, -0.00120451, 0.00198089, 0.455734, 0.309541
632.50408638700002939, -0.00256445, -0.00220954, -0.00120529, 0.00202254, 0.456008, 0.309038
632.537402277999945, -0.00256095, -0.0022048, -0.00120856, 0.00214928, 0.458662, 0.308488
632.57071860600001401, -0.00256147, -0.00220403, -0.00120732, 0.00225535, 0.458928, 0.308697
632.60418497299997398, -0.00256037, -0.00220226, -0.00120769, 0.00227026, 0.459558, 0.308491
632.63750130599999011, -0.00255597, -0.00219925, -0.00120986, 0.00232798, 0.4611, 0.307952
632.67081763999999566, -0.00255111, -0.00219568, -0.00121205, 0.00247466, 0.462937, 0.30768
632.70413397300001179, -0.00254957, -0.00219247, -0.00121199, 0.00256411, 0.464217, 0.308671
632.73745027300003585, -0.00254512, -0.00218516, -0.00121411, 0.0025471, 0.466597, 0.308768
632.7707666109999991, -0.0025413, -0.00218365, -0.00121376, 0.00257598, 0.466857, 0.308149
632.80408297300004961, -0.00253655, -0.00217886, -0.0012161, 0.00268922, 0.468859, 0.308147
632.83739927800002079, -0.0025303, -0.00217803, -0.00121893, 0.00261832, 0.469829, 0.307176
632.8707156399999576, -0.00252326, -0.00217314, -0.00122367, 0.00270329, 0.472146, 0.305832
632.90403197299997373, -0.00252068, -0.00217039, -0.00122718, 0.00288118, 0.473728, 0.304794
632.93749827299996014, -0.00251545, -0.00216499, -0.00123287, 0.00277508, 0.475718, 0.303184
632.97081461100003708, -0.00251422, -0.00216448, -0.00123792, 0.00250578, 0.476695, 0.301062
633.00413097299997389, -0.00251467, -0.00216974, -0.00123894, 0.00222111, 0.475687, 0.299917
633.03744727299999795, -0.00251715, -0.00217185, -0.00123566, 0.00232089, 0.474838, 0.301347
633.07076363999999558, -0.00251386, -0.0021703, -0.00124262, 0.00220965, 0.475536, 0.299073
633.10407997300001171, -0.00250871, -0.00216682, -0.00124662, 0.00230868, 0.47665, 0.297531
633.13739630600002783, -0.00250375, -0.00216507, -0.00124984, 0.00241152, 0.477848, 0.296313
633.17071264000003339, -0.00249559, -0.00215891, -0.00125341, 0.00249582, 0.479657, 0.294618
633.20402894400001514, -0.00249534, -0.00215369, -0.00125302, 0.00268675, 0.481238, 0.294655
633.23734530599995196, -0.00249458, -0.00215243, -0.00125177, 0.0028127, 0.481791, 0.29548
633.27081160600005205, -0.00249598, -0.00215238, -0.00124992, 0.0028596, 0.482054, 0.296944
633.30412791100002323, -0.00249681, -0.00214932, -0.00124708, 0.00290767, 0.483563, 0.298386
633.33744424899998648, -0.00250053, -0.00215151, -0.00124677, 0.00300095, 0.483497, 0.299806
633.37076060599997618, -0.00250179, -0.00215901, -0.00125109, 0.00311903, 0.480863, 0.300546
633.40407693999998173, -0.0025028, -0.0021599, -0.001252, 0.00314458, 0.480695, 0.300613
633.43739327799994498, -0.00250373, -0.00215937, -0.00125273, 0.00339849, 0.481427, 0.301178
633.47070960600001399, -0.00250646, -0.00216319, -0.00125544, 0.00342925, 0.480443, 0.301867
633.50402597300001162, -0.00250651, -0.0021656, -0.00125583, 0.00337695, 0.480049, 0.301992
633.53734225400000923, -0.00250785, -0.00216584, -0.00125662, 0.00358022, 0.480495, 0.302123
633.5706586400000333, -0.00251129, -0.00216904, -0.00126112, 0.00358767, 0.479451, 0.302654
633.60397494400001506, -0.0025149, -0.00217081, -0.00126391, 0.00368013, 0.479199, 0.303318
633.63744131999999354, -0.00251666, -0.00217256, -0.00126549, 0.00364672, 0.478658, 0.30367
633.67075764000003346, -0.00251936, -0.00217417, -0.00126797, 0.00357904, 0.477978, 0.304064
633.70407397300004959, -0.00252199, -0.00217626, -0.00127028, 0.00375023, 0.478101, 0.305071
633.73739030599995203, -0.00252378, -0.0021775, -0.00127073, 0.00385137, 0.478223, 0.305394
633.77070660599997609, -0.0025261, -0.00217931, -0.00127179, 0.00378883, 0.478062, 0.305938
633.80402297299997372, -0.00252709, -0.00217904, -0.00127203, 0.00367652, 0.47793, 0.306028
633.83733926800005065, -0.00252861, -0.00217854, -0.00127346, 0.00350343, 0.477292, 0.305672
633.87065563900000598, -0.00253195, -0.00218025, -0.00127478, 0.00358318, 0.476997, 0.306126
633.90397194399997716, -0.00253334, -0.00218307, -0.00127517, 0.00379715, 0.477063, 0.306419
633.93728827300003559, -0.00253703, -0.00218606, -0.00127863, 0.00383611, 0.476053, 0.306355
633.97075783000002502, -0.00253904, -0.00218864, -0.00127898, 0.00391395, 0.475995, 0.306395
634.00407097300001169, -0.00253901, -0.00218965, -0.00127903, 0.00403026, 0.476088, 0.306663
634.03738730600002782, -0.00254118, -0.00218924, -0.00128104, 0.00401567, 0.475811, 0.307446
634.07070363900004395, -0.0025443, -0.00219096, -0.00128328, 0.00401401, 0.475514, 0.308287
634.1040199730000495, -0.00254577, -0.00219103, -0.0012841, 0.00394763, 0.475004, 0.308249
634.13733627299995987, -0.00254935, -0.0021926, -0.00128553, 0.00398803, 0.47429, 0.308344
634.17065261100003681, -0.00255085, -0.00219801, -0.00128835, 0.00410923, 0.473754, 0.308924
634.20396894400005294, -0.00255205, -0.00220058, -0.00128883, 0.00403212, 0.473748, 0.308946
634.23728527299999769, -0.00255078, -0.00220061, -0.0012888, 0.00406855, 0.473954, 0.308771
634.27060163900000589, -0.00255274, -0.00220136, -0.00128868, 0.00407864, 0.473628, 0.308923
634.30391797300001144, -0.00255594, -0.00220327, -0.00129038, 0.00421715, 0.47272, 0.308798
634.33738427799994497, -0.00255472, -0.00220279, -0.00128902, 0.00435433, 0.473773, 0.309091
634.37070063900000605, -0.00255256, -0.00220103, -0.00128771, 0.00436326, 0.475381, 0.309485
634.40401694399997723, -0.00255708, -0.00220347, -0.00128851, 0.00425831, 0.473704, 0.309752
634.43733330600002773, -0.00255974, -0.00220491, -0.00128932, 0.00435588, 0.473053, 0.309784
634.47064961099999891, -0.00255767, -0.00220529, -0.00128997, 0.00452484, 0.473928, 0.309773
634.50396594400001504, -0.00255701, -0.00220376, -0.00128886, 0.00469391, 0.475543, 0.310066
634.53728230599995186, -0.00255808, -0.00220409, -0.00128765, 0.00471752, 0.475901, 0.310535
634.57059861100003673, -0.00255822, -0.00220431, -0.0012858, 0.00487865, 0.476621, 0.311175
634.60391494400005286, -0.00255676, -0.00219965, -0.00128411, 0.00478287, 0.479745, 0.311043
634.63723130599998967, -0.00255655, -0.00219868, -0.00128352, 0.00476569, 0.480269, 0.311083
634.67069761100003689, -0.00255482, -0.00219734, -0.00128262, 0.00466074, 0.480726, 0.311006
634.70401393899999221, -0.00255423, -0.0021961, -0.00128203, 0.0044199, 0.481152, 0.311507
634.73733030599998983, -0.00255515, -0.0021942, -0.00128142, 0.00423411, 0.481631, 0.312284
634.77064657699997952, -0.00255504, -0.00219321, -0.00128128, 0.00406608, 0.481847, 0.311721
634.80396297300001152, -0.00255411, -0.00219196, -0.00128114, 0.00393156, 0.482208, 0.311566
634.83728101999997762, -0.00255502, -0.00219161, -0.00128135, 0.00390292, 0.481492, 0.312212
634.8705956060000517, -0.00255588, -0.00219209, -0.0012809, 0.00388755, 0.480983, 0.313473
634.90391197300004933, -0.00255924, -0.00219153, -0.00128178, 0.0038695, 0.481282, 0.314064
634.93722827700003108, -0.0025617, -0.00219082, -0.00128308, 0.00389006, 0.481704, 0.313053
634.9705446389999679, -0.0025636, -0.00219149, -0.00128166, 0.00405575, 0.482134, 0.313799
635.00386093899999196, -0.00256384, -0.00219008, -0.00128167, 0.00437487, 0.482332, 0.313294
635.03732730599995193, -0.00256879, -0.00219184, -0.00128162, 0.00448022, 0.48255, 0.314223
635.0706436110000368, -0.00257167, -0.00219176, -0.00128061, 0.0045963, 0.483051, 0.314759
635.10395994400005293, -0.00257308, -0.00219235, -0.00128178, 0.00464534, 0.482943, 0.315111
635.13727627699995537, -0.0025727, -0.002193, -0.00128344, 0.00473435, 0.48274, 0.31526
635.17059261099996093, -0.00257355, -0.00219706, -0.00128917, 0.00472793, 0.48103, 0.315829
635.20390897300001143, -0.00257387, -0.00219871, -0.00129412, 0.00484179, 0.479623, 0.31618
635.23722530600002756, -0.00257353, -0.00219951, -0.00129463, 0.00483003, 0.479412, 0.316448
635.27054163900004369, -0.0025749, -0.00220011, -0.00129454, 0.00477042, 0.479413, 0.31649
635.30385793899995406, -0.0025759, -0.00220034, -0.00129432, 0.00473188, 0.479315, 0.316139
635.337174277000031, -0.00257648, -0.00220144, -0.00129327, 0.00460368, 0.47893, 0.315936
635.37064060600005178, -0.00257755, -0.00220377, -0.00129183, 0.00429244, 0.477806, 0.315733
635.4039569730000494, -0.00257812, -0.00220473, -0.00129212, 0.00420907, 0.477806, 0.31606
635.43727327700003116, -0.00257855, -0.00220223, -0.00129205, 0.00442408, 0.480017, 0.31706
635.47058963899996797, -0.00257938, -0.00220057, -0.00129067, 0.00441074, 0.481019, 0.317032
635.50390594400005284, -0.00258187, -0.00219973, -0.00129, 0.00438237, 0.481104, 0.316686
635.53722230599998966, -0.00258208, -0.00220031, -0.00129023, 0.00440005, 0.481199, 0.316846
635.57053859200004808, -0.00258476, -0.00220047, -0.00128904, 0.00435021, 0.480972, 0.316397
635.60385493900002984, -0.00258496, -0.00219992, -0.00128942, 0.00436909, 0.481355, 0.316313
635.6371712730000354, -0.00258821, -0.00220217, -0.00128901, 0.0044081, 0.480988, 0.31605
635.67048760600005153, -0.00258849, -0.00220376, -0.00128922, 0.00440432, 0.48082, 0.316209
635.70380391499998041, -0.00258912, -0.00220474, -0.00128947, 0.00441158, 0.480999, 0.316266
635.73727027699999326, -0.00258746, -0.00220669, -0.00129005, 0.00458533, 0.481194, 0.316847
635.77058661099999881, -0.00258605, -0.00220752, -0.00129123, 0.00463565, 0.481497, 0.316956
635.80390297300004931, -0.00258404, -0.00220702, -0.00129255, 0.00475178, 0.482255, 0.317451
635.83721930599995176, -0.00258157, -0.00220607, -0.00129445, 0.00480254, 0.482945, 0.317556
635.87053558699994937, -0.00257939, -0.00220671, -0.00129635, 0.00493644, 0.483384, 0.317455
635.90385193899999194, -0.00257458, -0.00220463, -0.00130016, 0.00516746, 0.484604, 0.317506
635.9371682729999975, -0.00257244, -0.00220216, -0.00130285, 0.00522849, 0.485534, 0.317376
635.97048460600001363, -0.0025675, -0.00219722, -0.00130674, 0.0053153, 0.487099, 0.317655
636.00380097300001125, -0.00256137, -0.00219311, -0.00130964, 0.00547719, 0.488744, 0.317993
636.03711727699999301, -0.00255812, -0.00218837, -0.00131253, 0.00536682, 0.489716, 0.31816
636.07058361099996091, -0.00255761, -0.00218178, -0.00131556, 0.00535116, 0.491858, 0.318758
636.10389993900002992, -0.00255413, -0.00217786, -0.00132018, 0.00535594, 0.493102, 0.318342
636.13721627200004605, -0.00255494, -0.00217741, -0.00131639, 0.0053069, 0.492977, 0.319228
636.1705326439999908, -0.00256055, -0.00218062, -0.00130995, 0.00532679, 0.491573, 0.320865
636.20384897199994612, -0.00255759, -0.00217981, -0.00131703, 0.00513362, 0.492046, 0.320153
636.23716530599995167, -0.00255803, -0.00217876, -0.00131826, 0.005217, 0.492534, 0.320246
636.2704816389999678, -0.00256123, -0.00217372, -0.00131392, 0.0055308, 0.493606, 0.322215
636.30379793899999186, -0.00255776, -0.00217001, -0.00131513, 0.00535469, 0.494071, 0.322052
636.33711427699995511, -0.00255642, -0.00217381, -0.0013127, 0.00519768, 0.493036, 0.322341
636.37043060600001354, -0.00255824, -0.00217304, -0.00131111, 0.00516829, 0.492989, 0.323136
636.40389697199998409, -0.00255885, -0.0021687, -0.00131238, 0.00524394, 0.494158, 0.323957
636.43721330599998964, -0.0025607, -0.00216515, -0.00131258, 0.00525225, 0.495096, 0.324655
636.47052961099996082, -0.00256444, -0.00216484, -0.00131314, 0.00522112, 0.495535, 0.32525
636.5038459720000219, -0.00257039, -0.00216427, -0.00131734, 0.00538987, 0.496374, 0.325364
636.53716226799997457, -0.00257632, -0.00216739, -0.00131851, 0.00527183, 0.496184, 0.32634
636.57047861099999864, -0.00258062, -0.00217336, -0.00131612, 0.00514174, 0.495228, 0.327391
636.60379494400001477, -0.00258032, -0.00217477, -0.00131705, 0.00518171, 0.494894, 0.327114
636.63711124400003882, -0.00258024, -0.00217788, -0.00131814, 0.00519473, 0.494313, 0.327547
636.67042763899996771, -0.00258576, -0.00218249, -0.00131896, 0.00524247, 0.493325, 0.327848
636.70374397199998384, -0.00258474, -0.00218732, -0.00131956, 0.00535986, 0.492007, 0.327983
636.7370603059999894, -0.00258684, -0.00218933, -0.00131905, 0.00543709, 0.491811, 0.32822
636.7705266059999758, -0.00258673, -0.00218957, -0.00131988, 0.0054775, 0.491747, 0.328101
636.803842971999984, -0.00258836, -0.00218835, -0.00131819, 0.00541328, 0.491835, 0.328471
636.83715927200000806, -0.00259017, -0.00218804, -0.00131636, 0.00531422, 0.49163, 0.328557
636.87047563900000569, -0.00259388, -0.00218933, -0.00131488, 0.00522277, 0.490968, 0.329326
636.90379197200002181, -0.00259502, -0.00218991, -0.00131542, 0.00505711, 0.490402, 0.32926
636.93710830600002737, -0.00259596, -0.00219268, -0.00131748, 0.00501174, 0.489694, 0.328817
636.97042461000000912, -0.00259614, -0.00219249, -0.00131704, 0.005101, 0.489856, 0.329134
637.00374097199994594, -0.00259572, -0.00219299, -0.00131604, 0.00521688, 0.490028, 0.329603
637.0370573059999515, -0.00259605, -0.00219249, -0.00131641, 0.00538241, 0.490426, 0.329434
637.07037363899996762, -0.00259606, -0.00219308, -0.00131689, 0.00544792, 0.490417, 0.329584
637.10383993899995403, -0.00259746, -0.0021944, -0.00131767, 0.00546721, 0.49016, 0.329433
637.13715630599995166, -0.00259854, -0.0021928, -0.00131657, 0.00569286, 0.490658, 0.329652
637.1704726100000471, -0.00260102, -0.00219363, -0.00131819, 0.0057665, 0.490519, 0.329033
637.20378897199998391, -0.00260081, -0.00219355, -0.00131926, 0.0057643, 0.490518, 0.328817
637.23710530599998947, -0.00260008, -0.00219178, -0.00131972, 0.0057718, 0.490887, 0.328683
637.27042170100003204, -0.00259904, -0.00218872, -0.00132, 0.00584109, 0.49161, 0.328832
637.30373793900002966, -0.00259757, -0.00218231, -0.00131921, 0.00580368, 0.492994, 0.329279
637.33705427200004578, -0.00259695, -0.00218102, -0.00131954, 0.0057466, 0.493228, 0.329392
637.37037063900004341, -0.00259636, -0.00218102, -0.00132028, 0.00560536, 0.493222, 0.329551
637.40368697199994585, -0.00259556, -0.00217676, -0.00132298, 0.00536513, 0.494037, 0.329052
637.43700327199996991, -0.00259443, -0.00217113, -0.00132465, 0.00524638, 0.495177, 0.328612
637.47046963900004357, -0.0025939, -0.00216765, -0.00132292, 0.00522392, 0.495828, 0.3291
637.50378594400001475, -0.0025932, -0.00216357, -0.00132481, 0.00505482, 0.496555, 0.32858
637.53710227700003088, -0.00259334, -0.00216296, -0.00132496, 0.00488744, 0.496684, 0.328883
637.5704186389999677, -0.00259265, -0.00216144, -0.00132597, 0.00482868, 0.497025, 0.328708
637.60373494400005256, -0.00259275, -0.00215886, -0.00132628, 0.00482933, 0.497531, 0.328742
637.63705138199998146, -0.0025929, -0.00215893, -0.00132498, 0.00490988, 0.497535, 0.329146
637.67036760600001344, -0.00259243, -0.00215687, -0.00132687, 0.00486605, 0.498009, 0.328577
637.70368394399997669, -0.00259109, -0.00215502, -0.00132699, 0.00480353, 0.498314, 0.32843
637.73700030600002719, -0.00259046, -0.0021517, -0.00132558, 0.00481901, 0.498941, 0.328564
637.77031663900004332, -0.00258897, -0.00214953, -0.00132558, 0.00486729, 0.499375, 0.328551
637.8037829720000218, -0.00258854, -0.00214691, -0.00132629, 0.00493034, 0.499811, 0.328227
637.83709930600002735, -0.00258798, -0.00214494, -0.0013263, 0.00502138, 0.500218, 0.328302
637.87041561000000911, -0.00258747, -0.00214322, -0.00132694, 0.00511939, 0.500527, 0.328247
637.90373197199994593, -0.00258723, -0.00214186, -0.00132718, 0.00524838, 0.500826, 0.328371
637.93704827199996998, -0.00258523, -0.00214041, -0.00132831, 0.0053918, 0.501001, 0.328394
637.97036463899996761, -0.00258453, -0.00213807, -0.00132903, 0.00557365, 0.501439, 0.328434
638.00368093400004454, -0.00258337, -0.00213447, -0.00133095, 0.00595192, 0.502378, 0.329171
638.03699724399996285, -0.00258247, -0.00213288, -0.00133143, 0.00618426, 0.50284, 0.329717
638.07031363900000542, -0.00258155, -0.00213062, -0.00133425, 0.00648532, 0.503293, 0.329871
638.10362993900002948, -0.00258178, -0.00212991, -0.00133442, 0.00656581, 0.503594, 0.330079
638.13694630600002711, -0.00258068, -0.00212863, -0.0013384, 0.00679156, 0.503698, 0.329894
638.17041263900000558, -0.00258025, -0.00212936, -0.00134517, 0.00719927, 0.503531, 0.330259
638.20372891499994239, -0.00258009, -0.00213206, -0.0013542, 0.0076369, 0.502982, 0.331068
638.23704527699999289, -0.00257943, -0.00213188, -0.00135913, 0.007808, 0.502801, 0.330913
638.2703616390000434, -0.00257897, -0.002133, -0.00136282, 0.00792135, 0.502448, 0.330909
638.30367793899995377, -0.00258014, -0.00213699, -0.00136387, 0.00791238, 0.501866, 0.331478
638.3369942719999699, -0.00258182, -0.002142, -0.00136753, 0.00806939, 0.501288, 0.332214
638.37031058599995959, -0.00258175, -0.0021458, -0.00137838, 0.00842399, 0.500334, 0.332803
638.40362693899999158, -0.00257983, -0.00215402, -0.0013923, 0.0084548, 0.498111, 0.333107
638.43694327200000771, -0.00258034, -0.00215739, -0.0013979, 0.00852173, 0.497485, 0.333483
638.47025963900000534, -0.00258219, -0.00215955, -0.00139917, 0.00845518, 0.497036, 0.333686
638.50372594400005255, -0.0025836, -0.00216247, -0.00140089, 0.00839807, 0.496682, 0.333985
638.53704227699995499, -0.00258462, -0.0021663, -0.00140343, 0.00832413, 0.496214, 0.334433
638.5703586390000055, -0.00258576, -0.00216753, -0.00140485, 0.00829164, 0.495989, 0.33454
638.60367494399997668, -0.00258988, -0.00217178, -0.0014084, 0.00826956, 0.495603, 0.335169
638.63699130500003776, -0.00259126, -0.00217521, -0.00140685, 0.00802632, 0.495278, 0.335338
638.67030760499994813, -0.00259174, -0.00217444, -0.00140694, 0.00774538, 0.494537, 0.334642
638.70362397199994575, -0.00259273, -0.00217512, -0.00140925, 0.0076012, 0.493923, 0.334394
638.73694027700003062, -0.00259314, -0.00217609, -0.00140822, 0.00752632, 0.493932, 0.334514
638.77025663899996744, -0.00259475, -0.00217644, -0.00140603, 0.00739205, 0.494011, 0.334506
638.80357293899999149, -0.00259439, -0.002176, -0.0014055, 0.00737368, 0.494087, 0.334458
638.83688930499999969, -0.00259465, -0.00217589, -0.00140478, 0.00741128, 0.494158, 0.334411
638.8703556389999676, -0.00259616, -0.00217505, -0.00140218, 0.00759891, 0.49468, 0.334182
638.90367197199998373, -0.00259665, -0.0021763, -0.00140084, 0.00775669, 0.495036, 0.334416
638.93698827699995491, -0.00259685, -0.0021762, -0.00140047, 0.00772603, 0.495104, 0.334558
638.97030463900000541, -0.00259615, -0.00217733, -0.00140071, 0.00742661, 0.495689, 0.334659
639.00362097200002154, -0.00259396, -0.00217668, -0.00139943, 0.00736559, 0.495994, 0.334498
639.03693730500003767, -0.00259248, -0.00217455, -0.0013984, 0.00729461, 0.496102, 0.334306
639.07025363900004322, -0.00258896, -0.00217244, -0.00139766, 0.00717973, 0.496366, 0.33397
639.10357280100004118, -0.00258812, -0.00217047, -0.00139745, 0.00707243, 0.496278, 0.333915
639.13688630499996179, -0.00258772, -0.00216992, -0.00139763, 0.00702232, 0.496205, 0.333917
639.17020263899996735, -0.00258753, -0.00217091, -0.00139847, 0.00709125, 0.496441, 0.334082
639.20366893899995375, -0.0025879, -0.00217163, -0.00139953, 0.00712263, 0.496387, 0.334245
639.23698527700003069, -0.00258995, -0.00217255, -0.00139992, 0.0071133, 0.496367, 0.334614
639.27030163899996751, -0.00259064, -0.00217285, -0.00139955, 0.00711141, 0.496424, 0.334721
639.30361794299994926, -0.00258884, -0.00217333, -0.00139864, 0.00713567, 0.496937, 0.334814
639.3369342720000077, -0.00258832, -0.00217304, -0.00139855, 0.0071432, 0.497354, 0.334887
639.37025063900000532, -0.0025881, -0.00217322, -0.0013985, 0.00713208, 0.497501, 0.334982
639.40356697200002145, -0.00258864, -0.00217331, -0.00139889, 0.00722811, 0.497922, 0.335188
639.43688327200004551, -0.00258865, -0.00217349, -0.00140138, 0.00743335, 0.498606, 0.335531
639.47019957700001669, -0.00258876, -0.00217468, -0.00140425, 0.0076025, 0.499202, 0.335912
639.50351593899995351, -0.00258953, -0.00217533, -0.00140839, 0.00777322, 0.499773, 0.336284
639.53698227699999279, -0.00258829, -0.00217533, -0.00141022, 0.00792537, 0.500693, 0.336237
639.57029863900004329, -0.00258749, -0.00217634, -0.00140832, 0.00793186, 0.501168, 0.336185
639.60361497199994574, -0.00258528, -0.00217637, -0.00140712, 0.00796723, 0.501733, 0.336091
639.63693130499996187, -0.00258438, -0.00217599, -0.00141, 0.00808898, 0.502345, 0.33607
639.67024763899996742, -0.00258402, -0.00217531, -0.00141554, 0.00822037, 0.502614, 0.336075
639.70356397199998355, -0.00258481, -0.00217543, -0.001417, 0.00824668, 0.502661, 0.336243
639.73688027699995473, -0.00258294, -0.00217639, -0.0014172, 0.00831993, 0.503376, 0.336133
639.77019660500002374, -0.0025846, -0.00217863, -0.00142095, 0.00841709, 0.503802, 0.336377
639.80351294299998699, -0.00258375, -0.00217794, -0.00142511, 0.00853907, 0.504202, 0.336273
639.83682930500003749, -0.0025823, -0.00217587, -0.00143276, 0.00871229, 0.504691, 0.335848
639.87014563900004305, -0.00258197, -0.00217703, -0.00143268, 0.00875018, 0.505005, 0.335882
639.90361197200002152, -0.00258117, -0.00217874, -0.00143529, 0.00884566, 0.505447, 0.335872
639.93692830500003765, -0.00258028, -0.00217727, -0.00143991, 0.0089703, 0.505783, 0.335536
639.97024460499994802, -0.00258035, -0.00217873, -0.00143969, 0.00898254, 0.505883, 0.335668
640.00356097199994565, -0.00258336, -0.00218006, -0.001446, 0.00900182, 0.505771, 0.335787
640.03687730499996178, -0.0025851, -0.00217717, -0.0014539, 0.00906353, 0.50561, 0.335455
640.07019360499998584, -0.00258693, -0.00217695, -0.00146784, 0.00918559, 0.505575, 0.335192
640.10350993899999139, -0.00258892, -0.00217983, -0.00147957, 0.00939737, 0.506031, 0.334949
640.13682627699995464, -0.00259324, -0.00218067, -0.001495, 0.00947664, 0.505886, 0.334845
640.17014260999997077, -0.00259531, -0.00218279, -0.00150519, 0.00955553, 0.505904, 0.334752
640.20345897200002128, -0.00259895, -0.00218772, -0.00151716, 0.00970876, 0.506167, 0.334684
640.2369252769999548, -0.00259858, -0.00218472, -0.00152821, 0.00988877, 0.506305, 0.33407
640.27024160999997093, -0.00260064, -0.00218231, -0.00153976, 0.0100094, 0.506284, 0.333591
640.30355797200002144, -0.00260551, -0.00218292, -0.00154431, 0.00990674, 0.505979, 0.33378
640.33687430500003757, -0.00260948, -0.00218413, -0.00154919, 0.00985711, 0.505793, 0.333867
640.37019060499994794, -0.00261174, -0.00218896, -0.00155232, 0.00989713, 0.505855, 0.333957
640.40350697199994556, -0.00261573, -0.00219408, -0.00155948, 0.00990107, 0.505784, 0.334058
640.43682325299994318, -0.00262047, -0.00219258, -0.00157396, 0.00978784, 0.505348, 0.333941
640.47013961000004656, -0.00262208, -0.00219166, -0.00158026, 0.00983505, 0.505296, 0.333738
640.5034559389999913, -0.00262638, -0.00219184, -0.00158659, 0.00978025, 0.505132, 0.33375
640.53677359999994678, -0.00264029, -0.00220642, -0.00159559, 0.00937027, 0.504528, 0.334691
640.57008872899996277, -0.00264645, -0.00221121, -0.00160452, 0.00922405, 0.504238, 0.334932
640.60355494299994916, -0.00264996, -0.00221212, -0.00161047, 0.00914576, 0.504075, 0.334981
640.63687130499999967, -0.00265216, -0.00221688, -0.00161088, 0.0090573, 0.503978, 0.335178
640.67018760999997085, -0.00265581, -0.00221582, -0.00161767, 0.00903273, 0.503858, 0.335071
640.70350397200002135, -0.0026583, -0.00221219, -0.00162499, 0.00912159, 0.503811, 0.334776
640.73682027200004541, -0.00266392, -0.00222265, -0.00163859, 0.00922964, 0.503633, 0.334699
640.77013663800005361, -0.00266363, -0.0022234, -0.00163665, 0.00930304, 0.503684, 0.334669
640.80345297199994548, -0.00266385, -0.00222382, -0.00163698, 0.00927951, 0.503673, 0.334699
640.83676930499996161, -0.00266622, -0.0022234, -0.00164489, 0.00907563, 0.503488, 0.334716
640.87008560499998566, -0.00266741, -0.00222368, -0.00164844, 0.00900106, 0.503432, 0.334715
640.90340194299994891, -0.00266844, -0.00222599, -0.00164918, 0.00904323, 0.503402, 0.334721
640.9368682770000305, -0.00266981, -0.00222922, -0.00164809, 0.00917596, 0.503417, 0.334747
640.97018463799997789, -0.00267037, -0.00222306, -0.00165152, 0.00908919, 0.50341, 0.334627
641.00350097199998345, -0.00266847, -0.00222928, -0.00164532, 0.00891174, 0.50347, 0.334853
641.03681727200000751, -0.00266799, -0.00223279, -0.0016485, 0.00839652, 0.503405, 0.334996
641.07013360999997076, -0.00266722, -0.00222943, -0.00165215, 0.0082561, 0.503384, 0.334921
641.10344997200002126, -0.00266573, -0.00222684, -0.00165024, 0.0081775, 0.503421, 0.334897
641.13676627699999244, -0.00266096, -0.00222782, -0.00164341, 0.00802444, 0.503558, 0.334971
641.1700825770000165, -0.00266011, -0.00222931, -0.00164086, 0.00798683, 0.503596, 0.33501
641.20339893799996389, -0.00265868, -0.00222642, -0.00164056, 0.00789741, 0.503618, 0.334975
641.23671530499996152, -0.00265687, -0.00222128, -0.00163974, 0.00776861, 0.503635, 0.334902
641.27003158100001201, -0.00265151, -0.00221065, -0.00163289, 0.00767523, 0.503741, 0.334761
641.30349791000003279, -0.00265034, -0.00221214, -0.00162957, 0.00764042, 0.503779, 0.334791
641.33681427600004099, -0.00265022, -0.00221256, -0.00162811, 0.00749108, 0.503776, 0.334883
641.37013064300003862, -0.00265121, -0.00221074, -0.00163033, 0.00735001, 0.503722, 0.334971
641.40344694299994899, -0.00265123, -0.00220202, -0.00162779, 0.00718101, 0.503711, 0.334969
641.43676330499999949, -0.00264988, -0.00220126, -0.00162363, 0.00715362, 0.503759, 0.33494
641.47008024800004478, -0.00264774, -0.00219843, -0.00162093, 0.00716702, 0.503798, 0.334869
641.5033959429999868, -0.00264379, -0.00219101, -0.00161467, 0.00716034, 0.503875, 0.334753
641.53671227600000293, -0.00264048, -0.00218585, -0.00160772, 0.00716386, 0.503948, 0.334654
641.57002863800005343, -0.00264186, -0.00217881, -0.00160746, 0.0070439, 0.50382, 0.334804
641.6033449719999453, -0.002643, -0.00217501, -0.00160547, 0.00695393, 0.50375, 0.334977
641.63681130500003746, -0.00264462, -0.00217333, -0.00160398, 0.00688346, 0.50369, 0.335141
641.67012757600002715, -0.00264503, -0.00217781, -0.00160676, 0.00689989, 0.503694, 0.335113
641.70344397199994546, -0.00264054, -0.00217766, -0.00160885, 0.00707077, 0.503907, 0.334664
641.7367602760000409, -0.00263763, -0.00217579, -0.00161168, 0.00719908, 0.504081, 0.334302
641.77007661000004646, -0.00263474, -0.00217402, -0.0016158, 0.00733528, 0.504278, 0.33389
641.80339297199998327, -0.00263083, -0.00217371, -0.00161044, 0.0075511, 0.504731, 0.333317
641.8367093049999994, -0.00263039, -0.00217368, -0.00160929, 0.00755757, 0.504749, 0.33332
641.8700255810000499, -0.00262975, -0.00216763, -0.00160777, 0.00751118, 0.504688, 0.333477
641.90334194299998671, -0.00263033, -0.00215707, -0.00160854, 0.0074628, 0.504631, 0.333596
641.93665827600000284, -0.00263186, -0.0021521, -0.00161742, 0.00746968, 0.504602, 0.33339
641.9699746100000084, -0.00263151, -0.00216074, -0.0016344, 0.00761736, 0.504689, 0.332599
642.00344097200002125, -0.0026301, -0.00216125, -0.00164785, 0.00776733, 0.504847, 0.331863
642.036757276000003, -0.00263241, -0.00216389, -0.00166041, 0.00781611, 0.504822, 0.331403
642.07007361000000856, -0.00263249, -0.00217231, -0.00167476, 0.00786803, 0.504739, 0.330877
642.10338997199994537, -0.00263091, -0.00217774, -0.00167369, 0.00788367, 0.5047, 0.330868
642.13670627600004082, -0.00263384, -0.00218062, -0.00167847, 0.00784449, 0.504569, 0.330812
642.17002266700001201, -0.00263931, -0.00218212, -0.00169102, 0.00776448, 0.504369, 0.330612
642.20333897199998319, -0.00264214, -0.00218277, -0.00169746, 0.00773475, 0.504282, 0.330481
642.23665527599996494, -0.00264592, -0.00218205, -0.00170806, 0.00774341, 0.50425, 0.330126
642.26997166700004982, -0.00265043, -0.00217767, -0.00171834, 0.00770227, 0.504223, 0.329873
642.3032879380000395, -0.00265312, -0.00217798, -0.00172518, 0.00768673, 0.504163, 0.329682
642.33675430499999948, -0.00265637, -0.00218126, -0.00172838, 0.00767157, 0.504064, 0.329608
642.37007063800001561, -0.00265957, -0.00217964, -0.00173493, 0.00765842, 0.50405, 0.329421
642.40338694299998679, -0.0026631, -0.00218081, -0.00174542, 0.00765927, 0.503977, 0.329092
642.43670327200004522, -0.00266656, -0.00218051, -0.00175229, 0.00763361, 0.503925, 0.328912
642.47001963800005342, -0.00267016, -0.00217549, -0.00176584, 0.0077138, 0.504039, 0.328374
642.50333597199994529, -0.00267047, -0.00218117, -0.00176757, 0.00774843, 0.50394, 0.328285
642.53665230499996142, -0.00267759, -0.0021848, -0.00178524, 0.0076949, 0.503737, 0.32786
642.56996860499998547, -0.00268136, -0.00217938, -0.00179697, 0.00772924, 0.503822, 0.327477
642.6032849719999831, -0.00268324, -0.00217324, -0.00180235, 0.00777168, 0.503953, 0.327265
642.63660124800003359, -0.00268415, -0.0021768, -0.00180288, 0.007716, 0.503841, 0.327326
642.67006757599995126, -0.00268976, -0.00218599, -0.00181264, 0.00752515, 0.5035, 0.327326
642.70338397199998326, -0.00269143, -0.00218657, -0.00181582, 0.00745665, 0.503436, 0.327324
642.73670030499999939, -0.00269913, -0.00218424, -0.00182753, 0.00715608, 0.503267, 0.327353
642.77001664800002345, -0.00269991, -0.00218363, -0.00182657, 0.00704382, 0.503231, 0.327461
642.80333297100003165, -0.00270039, -0.00217901, -0.00182742, 0.00699649, 0.503286, 0.327469
642.8366493050000372, -0.00270804, -0.00217253, -0.00183974, 0.00698084, 0.50332, 0.327295
642.86996566699997402, -0.00270804, -0.00216871, -0.00183864, 0.0069598, 0.503373, 0.327314
642.90328197099995577, -0.002713, -0.00214908, -0.00184176, 0.00696319, 0.503623, 0.327231
642.93659831000002214, -0.00271458, -0.00214523, -0.00184157, 0.00690917, 0.503639, 0.327281
642.96991460499998539, -0.00271615, -0.0021448, -0.00183573, 0.00667587, 0.503525, 0.327568
643.00323093800000152, -0.00271669, -0.00214841, -0.00183348, 0.00655736, 0.503418, 0.327713
643.03669730499996149, -0.0027162, -0.00214834, -0.00183149, 0.00653472, 0.50341, 0.327745
643.07001386199999615, -0.00271418, -0.00215228, -0.0018272, 0.0064669, 0.50335, 0.327813
643.10332993800000168, -0.00271162, -0.0021617, -0.0018213, 0.00639694, 0.503263, 0.327861
643.13664627599996493, -0.00270777, -0.00216671, -0.00181805, 0.00638554, 0.503252, 0.327803
643.16996260500002336, -0.00270501, -0.00215829, -0.00180488, 0.00633456, 0.503224, 0.327812
643.20327894299998661, -0.00269524, -0.00216216, -0.00179393, 0.00629073, 0.503185, 0.327743
643.23659530500003711, -0.00268517, -0.00217015, -0.00177714, 0.00618417, 0.503102, 0.327645
643.26991160499994749, -0.00267822, -0.00216979, -0.00176072, 0.00609309, 0.502999, 0.3276
643.30322797099995569, -0.00267642, -0.0021682, -0.00175365, 0.00602056, 0.502906, 0.327712
643.33654427600004055, -0.00267321, -0.00216631, -0.00174494, 0.00595934, 0.502819, 0.327779
643.37001060499994765, -0.00266883, -0.0021715, -0.00173765, 0.00588034, 0.502775, 0.327727
643.40332693799996377, -0.00266806, -0.0021746, -0.00173523, 0.00583419, 0.502731, 0.327764
643.4366433049999614, -0.00267277, -0.0021704, -0.00173653, 0.00584788, 0.50263, 0.327966
643.46995960899994316, -0.00267622, -0.00216704, -0.00174498, 0.0059633, 0.502767, 0.327824
643.50327597099999366, -0.00267699, -0.00216791, -0.00174701, 0.00596997, 0.502808, 0.327836
643.53659230499999921, -0.00268003, -0.0021688, -0.00174716, 0.00597901, 0.502819, 0.327864
643.56990860899998097, -0.002681, -0.00216861, -0.00174887, 0.00599699, 0.502854, 0.327835
643.6032249380000394, -0.00268925, -0.00215588, -0.00175729, 0.00614247, 0.502871, 0.327769
643.63654130500003703, -0.00268953, -0.00215476, -0.00175929, 0.00617938, 0.502948, 0.327666
643.66985763800005316, -0.00268915, -0.00215348, -0.00176152, 0.00622477, 0.503032, 0.327519
643.7031739709999556, -0.0026967, -0.00214706, -0.00176248, 0.00622685, 0.502821, 0.327751
643.73664027600000281, -0.00269662, -0.00214651, -0.00176118, 0.00621171, 0.50276, 0.32781
643.76995660499994756, -0.00269815, -0.00214374, -0.00176219, 0.00623639, 0.502743, 0.32779
643.80327297099995576, -0.00269898, -0.00214333, -0.00176436, 0.00626847, 0.502816, 0.327724
643.83658927600004063, -0.00270124, -0.00213919, -0.00176432, 0.00628415, 0.502713, 0.327758
643.86990563799997744, -0.00270191, -0.00213096, -0.00176968, 0.00642863, 0.502887, 0.327397
643.90322194299994862, -0.00270988, -0.00212823, -0.00176933, 0.0063904, 0.502587, 0.327775
643.93653830499999913, -0.00272962, -0.00213169, -0.00177227, 0.00626203, 0.502034, 0.328857
643.96985463800001526, -0.00273687, -0.002129, -0.00177428, 0.00625468, 0.501826, 0.329152
644.00317093800003931, -0.0027402, -0.00212701, -0.00177481, 0.00625048, 0.501696, 0.329294
644.03648730500003694, -0.00275522, -0.00209855, -0.0017865, 0.00662052, 0.501569, 0.329225
644.06995360899998104, -0.00275379, -0.00210133, -0.00178842, 0.00664239, 0.501812, 0.329108
644.10326993800003947, -0.00275018, -0.00209851, -0.00178535, 0.00665871, 0.501767, 0.328849
644.13658624300001065, -0.00274857, -0.00209585, -0.00178668, 0.00674926, 0.501986, 0.328635
644.16990260499994747, -0.00275526, -0.00208904, -0.00178612, 0.00682076, 0.501732, 0.328912
644.20321897099995567, -0.0027644, -0.00209184, -0.0017822, 0.00663358, 0.501005, 0.329874
644.23653530499996123, -0.00276509, -0.00209137, -0.0017814, 0.00662821, 0.500921, 0.329905
644.26985160899994298, -0.00276489, -0.00209224, -0.00178163, 0.00661356, 0.500944, 0.329894
644.30316793800000141, -0.00276504, -0.00209057, -0.00177977, 0.00663733, 0.500797, 0.329799
644.33648430499999904, -0.00276828, -0.00208876, -0.00177588, 0.00661801, 0.500359, 0.329857
644.3698006089999808, -0.00276991, -0.00208919, -0.00177128, 0.00652511, 0.499907, 0.329753
644.4031169710000313, -0.00276819, -0.00209161, -0.00177206, 0.00642928, 0.499915, 0.329665
644.43658327599996483, -0.00276608, -0.00209375, -0.00177378, 0.00635141, 0.500024, 0.329556
644.46989963800001533, -0.00276777, -0.00209288, -0.00177062, 0.00631222, 0.499718, 0.329574
644.50321597100003146, -0.00276925, -0.00209164, -0.00177023, 0.00635981, 0.499702, 0.329704
644.53653230500003701, -0.00277074, -0.00209128, -0.00176931, 0.00635751, 0.499535, 0.329734
644.56984863800005314, -0.00277229, -0.00209224, -0.00176551, 0.00630536, 0.499025, 0.329659
644.60316497099995559, -0.00277557, -0.0020932, -0.00176085, 0.00629181, 0.498504, 0.329856
644.63648130499996114, -0.00277675, -0.00209454, -0.00175897, 0.00626774, 0.498219, 0.329766
644.66979763799997727, -0.00277324, -0.00209522, -0.0017647, 0.0062472, 0.498562, 0.329315
644.70311397600005421, -0.00276648, -0.00210322, -0.00176772, 0.00597091, 0.497895, 0.328481
644.73643030499999895, -0.00276436, -0.00210228, -0.00176902, 0.00603826, 0.497877, 0.328618
644.76989660899994306, -0.00275981, -0.00208886, -0.00178381, 0.00630869, 0.500248, 0.328051
644.80321293800000149, -0.00275747, -0.00208527, -0.00178521, 0.00636706, 0.500636, 0.32806
644.83652930499999911, -0.00275613, -0.00208285, -0.00178734, 0.00642252, 0.500902, 0.328043
644.86984560899998087, -0.00275301, -0.0020789, -0.00179162, 0.0064491, 0.501461, 0.327894
644.9031619380000393, -0.00275114, -0.00207621, -0.00179474, 0.00648349, 0.501927, 0.32764
644.93647830500003693, -0.00274848, -0.00207518, -0.00179778, 0.00648053, 0.502195, 0.327316
644.96979464300000018, -0.00274829, -0.00207628, -0.00179703, 0.00643374, 0.502142, 0.327343
645.00311093799996343, -0.00275054, -0.00207663, -0.00179378, 0.00642322, 0.502026, 0.327785
645.03642727600004037, -0.00275105, -0.00207734, -0.0017927, 0.00640364, 0.501957, 0.327922
645.06974362799996925, -0.0027461, -0.00207888, -0.00179686, 0.00629068, 0.502059, 0.327342
645.10305997600005412, -0.00274302, -0.00207921, -0.00179972, 0.00622552, 0.50223, 0.326982
645.13652627600004053, -0.00274356, -0.00208312, -0.00179757, 0.00613092, 0.501935, 0.327069
645.16984260899994297, -0.00274384, -0.00208666, -0.00179578, 0.00603835, 0.501738, 0.327137
645.20315894299994852, -0.00274238, -0.00208748, -0.0017967, 0.0060215, 0.501693, 0.327098
645.23647527100001753, -0.00274589, -0.00209008, -0.00179332, 0.00592415, 0.50157, 0.327553
645.26979160899998078, -0.00274812, -0.00209314, -0.00179138, 0.00582122, 0.501492, 0.327833
645.30310797100003128, -0.00274816, -0.00209429, -0.00179034, 0.005699, 0.501527, 0.327946
645.33642427099994165, -0.00274847, -0.00209453, -0.00178926, 0.00567829, 0.50155, 0.328057
645.36974060399995778, -0.00274885, -0.00209866, -0.00178781, 0.00557273, 0.500592, 0.328455
645.40305693799996334, -0.00274967, -0.00210088, -0.00178565, 0.00549418, 0.500415, 0.328697
645.43637337099994511, -0.0027496, -0.00210148, -0.00178589, 0.00548085, 0.500247, 0.328756
645.46983963800005313, -0.00275674, -0.00210817, -0.001782, 0.00535393, 0.499133, 0.329533
645.5031559379999635, -0.00275744, -0.00210952, -0.00178192, 0.00532623, 0.498964, 0.329711
645.53647227600004044, -0.00275865, -0.00211312, -0.00178443, 0.00523579, 0.497411, 0.329699
645.56978863799997725, -0.00276058, -0.00211446, -0.00178577, 0.00522551, 0.497145, 0.32982
645.60310497099999338, -0.00276747, -0.0021187, -0.00178975, 0.00519797, 0.496452, 0.330249
645.63642127100001744, -0.00276887, -0.00211935, -0.00179169, 0.00520518, 0.496228, 0.330278
645.66973763800001507, -0.0027787, -0.00212285, -0.00179743, 0.00524859, 0.495255, 0.330518
645.7030539710000312, -0.00279188, -0.00212903, -0.00181284, 0.00526994, 0.49327, 0.330756
645.73637030400004733, -0.00280497, -0.00213479, -0.00182708, 0.00534178, 0.492042, 0.331074
645.76968663800005288, -0.00281565, -0.00213593, -0.00184627, 0.00557476, 0.49152, 0.330844
645.80300293300001613, -0.0028164, -0.00213425, -0.00184854, 0.00564118, 0.491677, 0.330604
645.83646927600000254, -0.00281899, -0.00213406, -0.00185601, 0.00574514, 0.491553, 0.330323
645.86978563800005304, -0.00281925, -0.00213431, -0.00185545, 0.0057408, 0.491556, 0.330336
645.90310197099995548, -0.00282653, -0.00213545, -0.00185942, 0.00572424, 0.490811, 0.330302
645.93641830399997161, -0.00282871, -0.00213738, -0.00185463, 0.00564335, 0.49071, 0.330647
645.96973460899994279, -0.00282855, -0.0021381, -0.00185308, 0.00561718, 0.490753, 0.330782
646.0030509709999933, -0.00282815, -0.00213861, -0.00185319, 0.00562212, 0.490855, 0.330811
646.03636099000004833, -0.00283091, -0.00213918, -0.00185596, 0.00564112, 0.490638, 0.330807
646.06966890100000001, -0.00283298, -0.00214081, -0.00185699, 0.00567089, 0.490716, 0.330948
646.10297740399994382, -0.00283431, -0.00214026, -0.001855, 0.00561799, 0.490535, 0.331049
646.13643588200000067, -0.00283363, -0.00214014, -0.00185203, 0.00556946, 0.490553, 0.331166
646.16974447699999473, -0.00283233, -0.00213902, -0.00185121, 0.00557926, 0.490544, 0.330986
646.20305298100004165, -0.00284097, -0.00214046, -0.00185702, 0.00563182, 0.490062, 0.331129
646.23636148900004628, -0.00284095, -0.00214012, -0.00185737, 0.00563888, 0.490017, 0.331068
646.26967005500000596, -0.00284448, -0.00213755, -0.00186277, 0.00575522, 0.489448, 0.330526
646.30297862600002645, -0.00285219, -0.00213726, -0.00186195, 0.00572213, 0.488773, 0.33086
646.33628716299995176, -0.00286459, -0.002136, -0.00186469, 0.00577247, 0.487578, 0.331024
646.36959569999999076, -0.00286682, -0.00213537, -0.00186352, 0.00572673, 0.487123, 0.331021
646.40290423800001918, -0.00286716, -0.00213444, -0.00186137, 0.00564406, 0.486585, 0.33085
646.43621277499994449, -0.00287264, -0.00213669, -0.00185054, 0.00531027, 0.485349, 0.331192
646.46952131199998348, -0.00287893, -0.00213731, -0.00184507, 0.00517343, 0.484461, 0.331516
646.50297981500000333, -0.00287958, -0.00213737, -0.00184481, 0.00517801, 0.484449, 0.331545
646.53628835200004232, -0.00288074, -0.00213796, -0.00184222, 0.00509063, 0.484139, 0.331603
646.56959688899996763, -0.00288378, -0.00213859, -0.00184095, 0.00505891, 0.483697, 0.331633
646.60290542699999605, -0.00288544, -0.00213853, -0.00184038, 0.00508809, 0.483328, 0.331653
646.63621393500000067, -0.00288564, -0.00213804, -0.00184098, 0.00510892, 0.483663, 0.331735
646.66952246799996828, -0.00288647, -0.00213912, -0.00183943, 0.00500848, 0.48368, 0.331818
646.70283103799999935, -0.00288506, -0.00214319, -0.00183744, 0.00479128, 0.483361, 0.331573
646.73613954200004628, -0.00288403, -0.00214409, -0.001837, 0.00469869, 0.483285, 0.331408
646.76944807999996101, -0.00288654, -0.00214372, -0.00183672, 0.00462923, 0.483757, 0.331725
646.80275662199994713, -0.00288552, -0.0021421, -0.00183817, 0.00460806, 0.484189, 0.331766
646.83621512399997755, -0.0028851, -0.0021378, -0.00184053, 0.00464454, 0.48486, 0.331956
646.86952369000005092, -0.0028816, -0.00213282, -0.00184604, 0.00467402, 0.485765, 0.331713
646.90283219399998416, -0.0028801, -0.0021318, -0.00184832, 0.00461896, 0.486097, 0.331487
646.93614076400001522, -0.00287856, -0.00213067, -0.00185015, 0.004583, 0.486417, 0.331378
646.96944926799994846, -0.0028774, -0.00213131, -0.00184975, 0.00453954, 0.486448, 0.33145
647.00275783899996895, -0.00287748, -0.00213198, -0.00184949, 0.0044852, 0.486472, 0.331467
647.03607291599996643, -0.00287447, -0.00212667, -0.00185445, 0.00454637, 0.487215, 0.331201
647.06938960900004076, -0.00287256, -0.00212778, -0.00185402, 0.00447487, 0.487248, 0.331114
647.10270597099997758, -0.00286977, -0.00212824, -0.00185497, 0.00443173, 0.487241, 0.330883
647.13602240399995935, -0.00286943, -0.00212702, -0.00185607, 0.00447623, 0.487289, 0.330903
647.16933860400001777, -0.00286804, -0.00212536, -0.00185797, 0.00452938, 0.487367, 0.330805
647.20280493799998567, -0.00286861, -0.00212227, -0.00185942, 0.00461636, 0.48759, 0.330991
647.23612130399999387, -0.00286579, -0.00211714, -0.00186376, 0.00467266, 0.488245, 0.330785
647.26943760899996505, -0.00286339, -0.00211602, -0.00186673, 0.00469391, 0.488329, 0.330443
647.30275397100001555, -0.00286355, -0.00211066, -0.00187366, 0.00487654, 0.488666, 0.330059
647.33607030400003168, -0.00286039, -0.00210953, -0.00187748, 0.00488088, 0.488777, 0.329525
647.36938660900000286, -0.00285963, -0.00210839, -0.00188034, 0.00492141, 0.488808, 0.32931
647.40270290900002692, -0.00286501, -0.00210766, -0.00188053, 0.00499778, 0.488802, 0.329642
647.43601937599999019, -0.00287153, -0.00210732, -0.00188014, 0.00508275, 0.488793, 0.330091
647.46933563699997194, -0.00287566, -0.0021051, -0.00188381, 0.00520909, 0.488901, 0.330127
647.50265448499999366, -0.002876, -0.00210411, -0.00188643, 0.00526673, 0.488913, 0.329937
647.53596830399999362, -0.00287856, -0.00210789, -0.00188726, 0.0052515, 0.488184, 0.329972
647.56943457600004876, -0.00288077, -0.00210729, -0.00189003, 0.0053245, 0.488085, 0.32993
647.60275093699999616, -0.00288288, -0.00210692, -0.00189237, 0.00537966, 0.487968, 0.329884
647.63606727599994883, -0.00288496, -0.00210708, -0.00189455, 0.00541058, 0.487788, 0.32986
647.66938360899996496, -0.00289414, -0.00210742, -0.00190117, 0.00556425, 0.487442, 0.330063
647.70269994199998109, -0.00290307, -0.00210845, -0.00190508, 0.00567252, 0.487025, 0.330369
647.73601627599998665, -0.00290621, -0.00210672, -0.00190839, 0.00578911, 0.48714, 0.330393
647.76933263700004773, -0.00291185, -0.00210796, -0.00190957, 0.00582196, 0.486794, 0.330647
647.80264894200001891, -0.00292157, -0.00211048, -0.00192003, 0.00590366, 0.485603, 0.330277
647.83596530399995572, -0.00292573, -0.00210915, -0.00192894, 0.0060569, 0.485143, 0.329702
647.86928163699997185, -0.00292844, -0.00211003, -0.00193037, 0.00604273, 0.484852, 0.329742
647.90274794200001907, -0.00292868, -0.00211053, -0.0019303, 0.00600334, 0.484722, 0.329738
647.93606430399995588, -0.00292906, -0.00211359, -0.00192898, 0.00580069, 0.484167, 0.329972
647.96938063699997201, -0.00293121, -0.00211536, -0.00192773, 0.00569488, 0.483951, 0.330201
648.00269693699999607, -0.00293416, -0.00211898, -0.00192664, 0.00550809, 0.483487, 0.330509
648.0360133039999937, -0.00293248, -0.00212279, -0.00192597, 0.00520339, 0.482832, 0.330263
648.06932960400001775, -0.00293403, -0.00212423, -0.00192415, 0.00513845, 0.482909, 0.330594
648.10264592299995456, -0.00293375, -0.00212853, -0.00192113, 0.00476709, 0.482519, 0.33059
648.13596224200000506, -0.00293401, -0.0021318, -0.00191908, 0.00450722, 0.482405, 0.33075
648.16927863700004764, -0.00293738, -0.00213638, -0.00191837, 0.00419766, 0.482032, 0.331049
648.20259497100005319, -0.00293474, -0.00213578, -0.00191742, 0.00412069, 0.482331, 0.331003
648.23591127099996356, -0.00293341, -0.00213586, -0.00191912, 0.00397369, 0.482065, 0.330713
648.26937760399994204, -0.00293534, -0.00213658, -0.00191881, 0.00396174, 0.482198, 0.331066
648.30269393699995817, -0.00292481, -0.00213465, -0.00191787, 0.00383153, 0.482658, 0.330556
648.3360103039999558, -0.0029216, -0.00213461, -0.00191685, 0.00375257, 0.482806, 0.330429
648.36932663699997192, -0.0029216, -0.00213531, -0.00191623, 0.00365623, 0.48276, 0.330451
648.4026429419999431, -0.00292087, -0.00213563, -0.00191566, 0.0036144, 0.482767, 0.330449
648.43595930399999361, -0.00291839, -0.00213565, -0.0019157, 0.00355874, 0.482724, 0.330287
648.46927560400001767, -0.00291436, -0.00213623, -0.00191484, 0.00340637, 0.482591, 0.329979
648.50259193700003379, -0.00291289, -0.00213644, -0.00191408, 0.00338662, 0.482778, 0.330043
648.53590830400003142, -0.00291021, -0.00213639, -0.00191413, 0.00334009, 0.482776, 0.329862
648.56922463700004755, -0.00290721, -0.00213567, -0.00191376, 0.0033461, 0.483028, 0.329718
648.60269093700003395, -0.00290478, -0.00213345, -0.00191435, 0.00341793, 0.48352, 0.329501
648.63600730400003158, -0.00289501, -0.00213158, -0.00190901, 0.00324803, 0.484004, 0.328694
648.66932364199999483, -0.00289426, -0.00213111, -0.0019099, 0.00329279, 0.484151, 0.32862
648.70263997100005327, -0.00289224, -0.00213208, -0.00190868, 0.00327326, 0.484251, 0.328662
648.73595630399995571, -0.00288947, -0.00213115, -0.0019083, 0.0032613, 0.484284, 0.328513
648.76927260900004057, -0.00289082, -0.00213214, -0.00190929, 0.00331527, 0.484478, 0.328628
648.80258897099997739, -0.0028943, -0.00213523, -0.00191186, 0.0034598, 0.485056, 0.328967
648.83590527100000145, -0.00289495, -0.00213449, -0.00191695, 0.00356792, 0.4853, 0.328792
648.86922160400001758, -0.00289593, -0.00213536, -0.00192051, 0.00364492, 0.485468, 0.328764
648.9025379710000152, -0.00289741, -0.00213641, -0.00192188, 0.00366529, 0.4855, 0.328814
648.93585565599994425, -0.00290193, -0.0021375, -0.00192745, 0.00368817, 0.485339, 0.328799
648.96932060899996486, -0.00290846, -0.00213958, -0.00193459, 0.00374903, 0.485315, 0.328798
649.00263694199998099, -0.00291451, -0.00214323, -0.00194077, 0.00377326, 0.485202, 0.328843
649.03595330400003149, -0.00291849, -0.00214396, -0.00195127, 0.00385315, 0.485168, 0.328472
649.06926960399994186, -0.00291829, -0.00214437, -0.00195322, 0.00388542, 0.485216, 0.328363
649.10258597100005318, -0.00291853, -0.00214429, -0.00195521, 0.00392755, 0.485275, 0.328202
649.13590230399995562, -0.00291977, -0.00214573, -0.00195826, 0.00397553, 0.485354, 0.328087
649.16921860399997968, -0.00292028, -0.00214492, -0.00196112, 0.00400642, 0.485358, 0.327916
649.20253492300003018, -0.00292624, -0.00214284, -0.00198142, 0.00418502, 0.485282, 0.326938
649.23585130399999343, -0.00293131, -0.00214545, -0.0019881, 0.00421681, 0.485196, 0.326773
649.26916760400001749, -0.00293323, -0.00214664, -0.00199189, 0.00426823, 0.485201, 0.326605
649.30263397099997746, -0.0029356, -0.00214726, -0.00199657, 0.00429101, 0.485148, 0.326453
649.33595030399999359, -0.00294072, -0.00214792, -0.00200576, 0.00424818, 0.484889, 0.326278
649.36926660899996477, -0.00293976, -0.00214717, -0.00200658, 0.00431405, 0.48497, 0.326139
649.40258293700003378, -0.00294103, -0.00215186, -0.00200464, 0.00429599, 0.484953, 0.326305
649.43589930400003141, -0.00295081, -0.00216126, -0.00201353, 0.00415028, 0.484613, 0.326482
649.46921557500002109, -0.00295703, -0.00216348, -0.00202113, 0.00408366, 0.484394, 0.326413
649.50253193699995791, -0.00295811, -0.00216309, -0.00202189, 0.00407658, 0.484368, 0.326391
649.53584830399995553, -0.00296142, -0.00216436, -0.00202512, 0.00405859, 0.484274, 0.326349
649.56916484700002457, -0.00296015, -0.0021664, -0.0020195, 0.00402509, 0.484345, 0.326537
649.60248096999998779, -0.0029587, -0.00216572, -0.00201509, 0.00386612, 0.484339, 0.326728
649.63594727500003501, -0.00295862, -0.00216583, -0.00201539, 0.00377166, 0.484285, 0.326775
649.66926359900003263, -0.00295508, -0.00215701, -0.00201058, 0.00371371, 0.48436, 0.326719
649.70257996999998795, -0.00295266, -0.00214696, -0.00200798, 0.00365337, 0.484407, 0.326588
649.73589630399999351, -0.00295406, -0.00214389, -0.00201017, 0.00357964, 0.484336, 0.326506
649.76921260899996469, -0.00295943, -0.00214496, -0.00201727, 0.00333767, 0.484066, 0.326472
649.80252893700003369, -0.00295902, -0.00214452, -0.00201691, 0.00321124, 0.484029, 0.326473
649.83584527499999695, -0.00295622, -0.00214202, -0.00201306, 0.0032152, 0.48412, 0.326477
649.86916160399994169, -0.00295565, -0.00214097, -0.00201194, 0.00316946, 0.484129, 0.326481
649.90247794200001863, -0.0029547, -0.00214, -0.00201077, 0.00306632, 0.484108, 0.326471
649.93579430399995545, -0.00295192, -0.00214463, -0.00200733, 0.00297751, 0.484123, 0.326559
649.96911063699997158, -0.00295058, -0.00214604, -0.00200607, 0.00291349, 0.484114, 0.326591
650.00257694200001879, -0.00294677, -0.00214775, -0.00200232, 0.00287856, 0.484163, 0.326648
650.03589330399995561, -0.00294357, -0.0021431, -0.00199732, 0.00280876, 0.484183, 0.326588
650.06920960399997966, -0.00294173, -0.00214032, -0.00199447, 0.00274841, 0.484174, 0.326562
650.10252596999998786, -0.00293836, -0.00213836, -0.0019887, 0.00270547, 0.48423, 0.326542
650.13584230399999342, -0.00293612, -0.00213871, -0.00198588, 0.0026784, 0.484252, 0.326562
650.16915863700000955, -0.00293246, -0.00213646, -0.00198161, 0.0026692, 0.484318, 0.326533
650.20247497000002568, -0.00292586, -0.00214111, -0.00197399, 0.00270042, 0.484497, 0.326563
650.23579130400003123, -0.00292428, -0.00214252, -0.00197205, 0.00271958, 0.484554, 0.326568
650.26910760800001299, -0.00292223, -0.00214364, -0.00196975, 0.00275715, 0.484632, 0.326551
650.3024239699999498, -0.00291745, -0.0021397, -0.00196245, 0.00277553, 0.484757, 0.326504
650.33589030400003139, -0.00291507, -0.00213736, -0.00195918, 0.0027927, 0.48483, 0.326463
650.36920660800001315, -0.00291224, -0.00213788, -0.00195508, 0.00283898, 0.484957, 0.326424
650.4025229420000187, -0.002907, -0.00213592, -0.00194646, 0.00287739, 0.485111, 0.326424
650.43583926999997402, -0.00290579, -0.00213414, -0.00194424, 0.00286733, 0.485129, 0.326454
650.46915563699997165, -0.00290573, -0.00213237, -0.00194381, 0.0028479, 0.485112, 0.326492
650.50247193699999571, -0.00290283, -0.00212971, -0.00194024, 0.00288838, 0.485219, 0.326446
650.53578853700003037, -0.00289978, -0.00212903, -0.00193854, 0.00297243, 0.485379, 0.326308
650.56910460799997509, -0.0028982, -0.00213797, -0.00194131, 0.00304833, 0.485414, 0.326151
650.60242094199998064, -0.00289567, -0.00214332, -0.0019391, 0.00309249, 0.485438, 0.326142
650.63573730400003114, -0.00289491, -0.00215131, -0.00194619, 0.00317683, 0.485461, 0.325819
650.66905363700004727, -0.00289147, -0.00215243, -0.00194167, 0.00325941, 0.485586, 0.325781
650.70251997000002575, -0.00289579, -0.00215541, -0.00195034, 0.00322681, 0.48546, 0.325585
650.7358363040000313, -0.00290063, -0.00216538, -0.00196374, 0.00319707, 0.485226, 0.325223
650.76915260800001306, -0.00289954, -0.00216534, -0.00196263, 0.00323527, 0.485272, 0.325189
650.8024689369999578, -0.00290448, -0.00216716, -0.00196249, 0.0031921, 0.485179, 0.325242
650.83578530399995543, -0.00291827, -0.00216885, -0.00198702, 0.00311249, 0.485, 0.324487
650.86910160399997949, -0.00292236, -0.00216968, -0.00199698, 0.00309514, 0.484941, 0.324157
650.90241791300002205, -0.00292304, -0.0021677, -0.00200021, 0.00314679, 0.485034, 0.323953
650.93573430399999324, -0.00292601, -0.00217019, -0.00200851, 0.00315745, 0.48497, 0.323627
650.96905063700000937, -0.00292976, -0.00217334, -0.00201796, 0.00316345, 0.484881, 0.323264
651.00236693700003343, -0.00292984, -0.00217348, -0.00202072, 0.00318699, 0.484894, 0.323134
651.0358333039999934, -0.00293038, -0.00217496, -0.00202327, 0.00321937, 0.484876, 0.322998
651.06914963700000953, -0.00293868, -0.00217782, -0.00204441, 0.00311221, 0.484684, 0.322393
651.10246597000002566, -0.00293969, -0.00217287, -0.00204789, 0.00308768, 0.484798, 0.322302
