time, bias_gyr_x, bias_gyr_y, bias_gyr_z, bias_acc_x, bias_acc_y, bias_acc_z
-1, 0, 0, 0, 0, 0, 0
1159.055937983000149, 0, 0, 0, 0, 0, 0
1159.0892651460001161, -0.00284245, -0.00588842, -0.000451984, -1.19654e-06, -1.07671e-05, 3.19262e-05
1159.1225922780001838, -0.00170095, 0.0039544, -0.000433217, -0.00668614, 0.000160412, -0.000219932
1159.1559194680000928, 0.00285531, 0.00560213, 0.00020743, -0.00977583, 0.00071659, -0.000405193
1159.1893966780000937, 0.00158741, 0.00646257, 0.000294379, -0.00144699, -0.000121363, 0.000149659
1159.2227238390000821, 8.81918e-05, 0.00717283, -0.00012001, 0.037481, 0.00092595, 0.00238564
1159.2560509720001392, -0.00217427, 0.00510975, -0.000437449, 0.114483, 0.00283203, 0.00655515
1159.2893781330001275, -0.00327, 0.00209212, -0.000383773, 0.179836, 0.00400228, 0.0102786
1159.3227052940001158, -0.00300477, 0.0003704, -0.000111004, 0.179392, 0.00411665, 0.0103617
1159.3560324220002258, -0.0031417, -0.000466134, -0.000204147, 0.132032, 0.00477323, 0.00742434
1159.3893596450002406, -0.0029587, -0.000949889, -0.000216991, 0.106753, 0.00532259, 0.00566524
1159.4226867770000808, -0.00282789, -0.00133195, -0.00017668, 0.091601, 0.0056709, 0.00440804
1159.4560139340001115, -0.0026011, -0.00141868, -0.000158959, 0.0711833, 0.00611126, 0.00224185
1159.4893411330001527, -0.00256144, -0.00152072, -0.000179825, 0.0620052, 0.0062704, 0.000997668
1159.5228183380002065, -0.00250522, -0.00177208, -0.00017273, 0.0669972, 0.00617999, 0.00191509
1159.5561454710000362, -0.0024304, -0.00197052, -9.1136e-05, 0.0682181, 0.00616582, 0.00222357
1159.5894726270000774, -0.00241973, -0.0018718, -6.69222e-05, 0.0591975, 0.00628837, -3.95541e-05
1159.6227997930002402, -0.00243535, -0.00189498, -0.000147243, 0.0552204, 0.006352, -0.00124398
1159.6561269830001493, -0.00243775, -0.00202322, -0.000253412, 0.0574093, 0.00631319, -0.000499823
1159.6894541440001376, -0.00232373, -0.00224201, -0.000280004, 0.0650663, 0.0061226, 0.00250356
1159.7227812720002476, -0.00230233, -0.00226507, -0.000290097, 0.0634681, 0.00616493, 0.00194132
1159.7561084370001936, -0.00216879, -0.00204703, -0.000329205, 0.0560642, 0.00640826, -0.00132823
1159.7894356270001026, -0.00193822, -0.00198749, -0.000509817, 0.05223, 0.00656001, -0.00316567
1159.8227627600001597, -0.00169539, -0.00199108, -0.000721017, 0.0526497, 0.00656983, -0.00289063
1159.8562399980000919, -0.00148639, -0.00214114, -0.000947248, 0.0542917, 0.00653982, -0.00190959
1159.8895671590000802, -0.00137475, -0.00225835, -0.00119461, 0.0553713, 0.00653391, -0.00136141
1159.9228943200000685, -0.00130181, -0.00231694, -0.00138501, 0.0548048, 0.00660741, -0.00168816
1159.9562214480001785, -0.0013237, -0.00252646, -0.00150855, 0.0583502, 0.00682905, -0.000443488
1159.9895485810002356, -0.00135604, -0.00264992, -0.00157511, 0.0594882, 0.00703885, -0.000182043
1160.0228711280001335, -0.00139916, -0.00275238, -0.00164117, 0.0603223, 0.00731069, -0.000472659
1160.0561869900002421, -0.00143118, -0.00282102, -0.00168122, 0.0607845, 0.00758682, -0.000545724
1160.089503385000171, -0.00150343, -0.00277074, -0.00168862, 0.0574644, 0.00812494, -0.00190013
1160.122819685000195, -0.00158195, -0.0028206, -0.00169713, 0.0578634, 0.00859551, -0.00228075
1160.1561360520001926, -0.00164882, -0.00289812, -0.00169935, 0.0589944, 0.00874143, -0.00218179
1160.1896023850001711, -0.00172438, -0.00289109, -0.00169188, 0.0576325, 0.0091303, -0.00290488
1160.2229187180000736, -0.00183281, -0.00292326, -0.00169506, 0.0573988, 0.00952325, -0.00390353
1160.2562350180000976, -0.00192108, -0.00301824, -0.00170473, 0.0576159, 0.00966644, -0.00445927
1160.2895513850000953, -0.00194454, -0.00313985, -0.00169205, 0.0594235, 0.0101818, -0.00461592
1160.3228676850001193, -0.00192689, -0.00321535, -0.00162974, 0.059707, 0.0107581, -0.00447387
1160.3561840230001962, -0.00189334, -0.00323005, -0.00157734, 0.0583916, 0.0113326, -0.00443228
1160.3895003560000987, -0.00187214, -0.00324569, -0.00152529, 0.0575401, 0.0116034, -0.00434417
1160.4228167560002021, -0.00185234, -0.00321769, -0.00147041, 0.0561422, 0.0120034, -0.00476138
1160.4561330510000516, -0.00179212, -0.00318138, -0.00140392, 0.0551615, 0.0123427, -0.00521847
1160.4894493560002502, -0.00177146, -0.00319079, -0.00138256, 0.0558583, 0.0124053, -0.00499832
1160.5227656850001949, -0.00170368, -0.00324772, -0.0013701, 0.0567586, 0.0122153, -0.00451156
1160.5562320230001205, -0.0017538, -0.00327029, -0.00142875, 0.0581982, 0.0117434, -0.00359442
1160.589548385000171, -0.00177455, -0.00329013, -0.0014605, 0.0592403, 0.0115389, -0.00303703
1160.6228647180000735, -0.00177064, -0.00330688, -0.00145927, 0.0622463, 0.0108038, -0.00113629
1160.6561816230000659, -0.00176264, -0.00330283, -0.00145418, 0.0685984, 0.00906864, 0.0038997
1160.6894973560001745, -0.00176447, -0.0033164, -0.00152084, 0.0694023, 0.00876527, 0.00439079
1160.7228136850001192, -0.00180073, -0.00324802, -0.00152918, 0.0649277, 0.0122442, -0.00759828
1160.756130018000249, -0.00185983, -0.00318193, -0.00149912, 0.0607466, 0.0161465, -0.022516
1160.7894463560000986, -0.00184865, -0.00311966, -0.00152084, 0.0618215, 0.0139613, -0.0181015
1160.8227627180001491, -0.00182227, -0.0031616, -0.00152711, 0.0624788, 0.0117817, -0.0115441
1160.8560790610001732, -0.00178372, -0.00320334, -0.00153084, 0.0633142, 0.00889422, -0.00403138
1160.8895458040001358, -0.00182899, -0.00321802, -0.00156321, 0.0637044, 0.00761852, 0.00556133
1160.922861690000218, -0.00186833, -0.00319484, -0.00157853, 0.063254, 0.00782255, 0.00748262
1160.9561780230001204, -0.00189399, -0.00314354, -0.00156751, 0.0618188, 0.00727395, -0.00225899
1160.989494385000171, -0.0018896, -0.00312962, -0.00156185, 0.0614827, 0.00820177, -0.00465772
1161.0228106890001527, -0.00187881, -0.00313109, -0.00154703, 0.0613673, 0.0127247, -0.0125943
1161.0561270370001239, -0.00186297, -0.00315895, -0.00155267, 0.0625323, 0.0161501, -0.00338157
1161.0894433850000951, -0.00186245, -0.00317125, -0.00157405, 0.0625823, 0.0183962, 0.0104844
1161.1227597180002249, -0.00187817, -0.00314013, -0.00157439, 0.060765, 0.0186608, 0.00727898
1161.156076018000249, -0.00187724, -0.00313366, -0.00155849, 0.0603098, 0.0202306, -0.0024315
1161.1893923850002466, -0.00188143, -0.00313154, -0.00155206, 0.0589654, 0.0236068, -0.00966961
1161.222708718000149, -0.00188732, -0.00313778, -0.00155935, 0.0580486, 0.0255557, -0.00577651
1161.2561750510001275, -0.00190043, -0.00314209, -0.00157824, 0.0567145, 0.0257038, 0.00401195
1161.2894913560000987, -0.00189728, -0.00316456, -0.00157682, 0.0589277, 0.0240146, 0.00384247
1161.3228077180001492, -0.00188745, -0.00317499, -0.00155349, 0.0609848, 0.0259026, -0.00850779
1161.3561240230001204, -0.00188959, -0.00319083, -0.00154607, 0.058549, 0.041603, -0.00870966
1161.3894403850001709, -0.00188936, -0.00317803, -0.00154245, 0.0560356, 0.0507604, -0.0052825
1161.4227567180000733, -0.00189054, -0.0031774, -0.0015621, 0.0528462, 0.0576024, 0.0136203
1161.4560730510002031, -0.00189163, -0.0031851, -0.00158366, 0.0500844, 0.0628787, 0.0333035
1161.489389385000095, -0.00189389, -0.00318956, -0.00159311, 0.0480498, 0.0686706, 0.0453724
1161.5227057180002248, -0.00190207, -0.00320598, -0.00161375, 0.0435755, 0.0830942, 0.0722732
1161.5560220510001272, -0.00189868, -0.00323001, -0.00165519, 0.0451238, 0.0789142, 0.0764726
1161.5894883700002538, -0.00189837, -0.00325832, -0.00168413, 0.0407503, 0.0923581, 0.110594
1161.622804718000225, -0.0019048, -0.00327828, -0.00170403, 0.0408976, 0.0961866, 0.114294
1161.6561210510001274, -0.00189471, -0.0032765, -0.00167479, 0.0457371, 0.0957215, 0.0715724
1161.6894373850002466, -0.00189437, -0.00326589, -0.00168339, 0.0413991, 0.0918226, 0.108713
1161.7227536850000433, -0.00189946, -0.00325702, -0.00167157, 0.0376576, 0.0924386, 0.13569
1161.7560700510000515, -0.00190623, -0.0032329, -0.00162364, 0.0353641, 0.0880258, 0.146444
1161.7893863510000756, -0.00191627, -0.00318244, -0.00161605, 0.0304704, 0.0685396, 0.192128
1161.8227027180000732, -0.00190839, -0.00318921, -0.00159904, 0.0321719, 0.0757919, 0.171807
1161.8560190180000973, -0.00191238, -0.00318939, -0.00157318, 0.0402938, 0.0833278, 0.0859123
1161.8893353560001742, -0.00191285, -0.00319928, -0.00156287, 0.0471772, 0.094826, 0.0140301
1161.9228017180000734, -0.00190338, -0.00322305, -0.00153314, 0.0534994, 0.113669, -0.0591755
1161.9561180230000446, -0.00190492, -0.00322964, -0.00149904, 0.0598313, 0.124476, -0.132744
1161.9894343560001744, -0.00190427, -0.00322792, -0.00147944, 0.0601031, 0.124184, -0.139868
1162.0227506850001191, -0.00190709, -0.00324004, -0.00144271, 0.0610723, 0.133925, -0.158868
1162.0560670510001273, -0.00191004, -0.00321942, -0.00140067, 0.0602573, 0.129201, -0.158115
1162.0893833560000985, -0.00188639, -0.00325312, -0.00140378, 0.0594498, 0.149981, -0.151388
1162.1226996850000432, -0.00189078, -0.00327363, -0.00136204, 0.0575527, 0.161314, -0.13979
1162.1560160510000514, -0.00190885, -0.00324687, -0.00126283, 0.054405, 0.157345, -0.121617
1162.1893323850001707, -0.0019178, -0.00325974, -0.00119635, 0.0485683, 0.158118, -0.0719572
1162.2226487180000731, -0.00191127, -0.00326781, -0.00117863, 0.0449577, 0.161318, -0.0376234
1162.2559650510002029, -0.00191249, -0.00327453, -0.001166, 0.0458201, 0.164891, -0.0464201
1162.2894313850001708, -0.00192682, -0.00329172, -0.0011416, 0.0490351, 0.173078, -0.0766699
1162.3227477180000733, -0.00193027, -0.00327832, -0.00113872, 0.0502874, 0.173425, -0.0882599
1162.3560640180000973, -0.00193216, -0.00327186, -0.00111619, 0.0505579, 0.173238, -0.0897827
1162.3893803560001743, -0.0019332, -0.00326592, -0.00108633, 0.0504358, 0.172849, -0.0864073
1162.4226967180002248, -0.00193875, -0.00323235, -0.000955022, 0.0478026, 0.164818, -0.049563
1162.4560130510001272, -0.00193933, -0.00321626, -0.000936146, 0.0475817, 0.164355, -0.044922
1162.4893293890002042, -0.00193158, -0.00309703, -0.000884124, 0.0455842, 0.168801, -0.021481
1162.5226456850000432, -0.00192911, -0.00306076, -0.000845806, 0.0444317, 0.167476, -0.0049525
1162.5559619890002523, -0.0019205, -0.00298001, -0.0008085, 0.0427257, 0.177083, 0.0145961
1162.5892783560002499, -0.00191947, -0.0029846, -0.000793956, 0.0419691, 0.173431, 0.0251661
1162.6227447230000962, -0.00191809, -0.00298294, -0.000798006, 0.040552, 0.172536, 0.0340815
1162.6560609940001996, -0.00190817, -0.00293405, -0.000787682, 0.0387031, 0.186469, 0.0496157
1162.6893773510000756, -0.00191062, -0.00283606, -0.000734574, 0.0386965, 0.212529, 0.0652118
1162.7226937180000732, -0.00192205, -0.0027973, -0.000658913, 0.0394404, 0.216241, 0.0888593
1162.756010051000203, -0.00189155, -0.00285954, -0.000684375, 0.0379387, 0.203167, 0.0912766
1162.7893263840001055, -0.00188047, -0.00281224, -0.000674342, 0.0370136, 0.229914, 0.101023
1162.8226426840001295, -0.00188122, -0.00282995, -0.000661997, 0.0366834, 0.215213, 0.110443
1162.8559590230001959, -0.00187227, -0.00281124, -0.000691843, 0.0388636, 0.217757, 0.0836824
1162.8892753420002464, -0.00192643, -0.00277672, -0.000644946, 0.0402194, 0.213498, 0.0993532
1162.9225916840000536, -0.00192907, -0.00276989, -0.000694859, 0.0402223, 0.227637, 0.0654381
1162.95590802300012, -0.00192412, -0.00277921, -0.000763386, 0.0397614, 0.22802, 0.0262307
1162.9893743940001514, -0.00191813, -0.00280521, -0.000781317, 0.0397425, 0.214003, 0.0172791
1163.022690718000149, -0.00192221, -0.00279819, -0.000787625, 0.0407019, 0.205172, 0.0074522
1163.0560070560002259, -0.00193182, -0.00277972, -0.000796548, 0.0417421, 0.199281, -0.00374935
1163.0893233840001812, -0.00194626, -0.00276404, -0.000819206, 0.043437, 0.177505, -0.0316074
1163.1226396840002053, -0.00195192, -0.00276588, -0.000823053, 0.0440219, 0.163758, -0.0384726
1163.1559560180000972, -0.0019681, -0.00276391, -0.000851797, 0.0444124, 0.157024, -0.0594976
1163.1892723840001054, -0.00197044, -0.00276582, -0.000862656, 0.0437516, 0.162037, -0.0631355
1163.2225886840001294, -0.00197782, -0.00277031, -0.000882459, 0.0424221, 0.174684, -0.0691606
1163.2559050510001271, -0.00198622, -0.00278419, -0.00091492, 0.0409352, 0.189598, -0.0789518
1163.2892213840002569, -0.00199033, -0.00278279, -0.00091225, 0.0404139, 0.201108, -0.0734334
1163.3226876890000767, -0.00199403, -0.00278485, -0.000920878, 0.0402865, 0.204925, -0.0748169
1163.3560040180002488, -0.00199947, -0.00277352, -0.000935477, 0.0408709, 0.20494, -0.0834759
1163.3893203560000984, -0.00200359, -0.002753, -0.00092476, 0.0417732, 0.192216, -0.0849994
1163.4226367180001489, -0.00201169, -0.00275178, -0.000927625, 0.0411916, 0.202053, -0.0881317
1163.4559530220001307, -0.0020115, -0.00278897, -0.000941699, 0.039369, 0.223508, -0.0841504
1163.4892693220001547, -0.00202105, -0.00277277, -0.000915594, 0.0394085, 0.237944, -0.0769355
1163.5225856890001523, -0.00202744, -0.00277413, -0.000888258, 0.039234, 0.244501, -0.0678326
1163.5559020510002028, -0.00203199, -0.00278136, -0.000901489, 0.0386247, 0.251594, -0.07046
1163.5892183840001053, -0.00203757, -0.00279536, -0.000899228, 0.0376035, 0.259086, -0.0658502
1163.6225385030002144, -0.00205299, -0.0028101, -0.000884044, 0.0367342, 0.265425, -0.0582167
1163.655851051000127, -0.00207404, -0.00286139, -0.000859599, 0.0346321, 0.277055, -0.0461538
1163.6893173560001742, -0.00206849, -0.00289988, -0.000829241, 0.0334384, 0.280846, -0.0364734
1163.7226341700002195, -0.0020682, -0.0029186, -0.000774449, 0.0332329, 0.279224, -0.0277333
1163.7559500510001271, -0.00207397, -0.00293265, -0.000701635, 0.0326773, 0.286766, -0.0180147
1163.7892663840002569, -0.00209353, -0.00293015, -0.000616541, 0.0315702, 0.308244, -0.00796468
1163.8225826890002281, -0.00211456, -0.00294531, -0.00054322, 0.0301607, 0.328773, 0.000748598
1163.8558990510000513, -0.00212607, -0.00298813, -0.000517184, 0.0286085, 0.343404, 0.0060811
1163.8892153840001811, -0.00213394, -0.00302067, -0.000500197, 0.027119, 0.360042, 0.00998624
1163.9225316890001523, -0.0021437, -0.00302872, -0.000481878, 0.0256282, 0.381644, 0.013526
1163.955848018000097, -0.00215972, -0.0030009, -0.000396135, 0.0259148, 0.388861, 0.0137573
1163.9891643840001052, -0.00214551, -0.00300245, -0.000339319, 0.0263104, 0.386569, 0.0125265
1164.0226307180000731, -0.00213156, -0.00298673, -0.000294642, 0.026759, 0.385198, 0.0109526
1164.0559470220000549, -0.00211239, -0.00295475, -0.000233789, 0.0276715, 0.381182, 0.00786533
1164.0892633560001741, -0.00209166, -0.0029403, -0.000234944, 0.0269951, 0.389105, 0.00906827
1164.1225796600001559, -0.00208561, -0.00292878, -0.00021949, 0.0268442, 0.392501, 0.00857301
1164.155896051000127, -0.00209282, -0.00293058, -0.000224806, 0.0261222, 0.39957, 0.00977224
1164.1892123560000982, -0.00214894, -0.00288745, -0.000217408, 0.0256571, 0.4085, 0.0103924
1164.222528689000228, -0.00214855, -0.0028789, -0.000259133, 0.0269399, 0.39616, 0.0109756
1164.2558450510000512, -0.00215169, -0.00283906, -0.000337494, 0.0269071, 0.393976, 0.0149848
1164.289161384000181, -0.00214685, -0.00282309, -0.000389797, 0.0269805, 0.390427, 0.0177169
1164.3224776600002315, -0.00213932, -0.00282417, -0.000445266, 0.0269306, 0.387976, 0.0206677
1164.3557940510002027, -0.00213822, -0.00282423, -0.000511221, 0.0265343, 0.387966, 0.0243291
1164.3892603840001811, -0.00213288, -0.00281146, -0.000542292, 0.0252036, 0.395545, 0.0267973
1164.4225766890001523, -0.00213167, -0.00279652, -0.00058865, 0.0238774, 0.401886, 0.0299474
1164.4558930220000548, -0.0021283, -0.00279917, -0.000604328, 0.02336, 0.404664, 0.0309588
1164.4892093510002269, -0.00212089, -0.0027927, -0.000589646, 0.0241738, 0.401766, 0.029746
1164.5225256890000765, -0.00208096, -0.0027604, -0.000641895, 0.0245622, 0.398416, 0.0323328
1164.5558420180002486, -0.00206979, -0.00275335, -0.000675086, 0.0254449, 0.394893, 0.0340803
1164.589158351000151, -0.00207772, -0.00276038, -0.000673408, 0.0262019, 0.393671, 0.0339207
1164.6224746560001222, -0.00208597, -0.00276519, -0.000665641, 0.0265083, 0.393622, 0.0335357
1164.6557910180001727, -0.00207848, -0.00275577, -0.000656578, 0.0271077, 0.393113, 0.032902
1164.6891073840001809, -0.00208106, -0.00274043, -0.000632378, 0.0274997, 0.39289, 0.0313611
1164.7225736560001224, -0.00207805, -0.00272252, -0.000660928, 0.0273685, 0.391081, 0.0334609
1164.7558900510000512, -0.00208115, -0.00273107, -0.000663823, 0.0269939, 0.39139, 0.0336669
1164.7892063840001811, -0.00208441, -0.00273615, -0.000681933, 0.0266947, 0.39097, 0.0349634
1164.8225226890001522, -0.00208776, -0.00274721, -0.000702041, 0.0253676, 0.390237, 0.0349363
1164.8558390220000547, -0.00209781, -0.00275515, -0.000693391, 0.0242574, 0.390309, 0.0325915
1164.8891553700002532, -0.00210625, -0.00274853, -0.000688857, 0.023298, 0.389222, 0.0308253
1164.9224717220001821, -0.0021222, -0.0027068, -0.000663161, 0.0220056, 0.385792, 0.0266247
1164.9557880220002062, -0.00212675, -0.0026707, -0.000663702, 0.0211318, 0.382159, 0.0254423
1164.9891043560000981, -0.00211468, -0.00266751, -0.000688016, 0.0202686, 0.3801, 0.0260891
1165.022420737000175, -0.00212502, -0.00268705, -0.000662118, 0.0195693, 0.381479, 0.0217104
1165.055887051000127, -0.00212868, -0.00270336, -0.000655887, 0.019912, 0.383757, 0.0218141
1165.0892033840002568, -0.0021332, -0.00270491, -0.000665612, 0.0205043, 0.384556, 0.024871
1165.1225196700002016, -0.00214274, -0.00270376, -0.000626022, 0.0207279, 0.385885, 0.020429
1165.1558360510000512, -0.00214602, -0.00270585, -0.000598979, 0.0217246, 0.388808, 0.0189459
1165.1891523510000752, -0.0021413, -0.00265824, -0.000566138, 0.023102, 0.38777, 0.0184927
1165.2224686890001522, -0.00215075, -0.00264458, -0.000498067, 0.0239886, 0.390438, 0.0108739
1165.2557850510002027, -0.00216871, -0.00268593, -0.000439373, 0.0253204, 0.399761, 0.00429658
1165.2891013840001051, -0.00216664, -0.00268844, -0.000420326, 0.0260314, 0.402045, 0.0028707
1165.3224176840001292, -0.00217294, -0.00269111, -0.000379431, 0.0267764, 0.405371, -0.00174819
1165.3557346360000793, -0.00218233, -0.00272726, -0.000332231, 0.027496, 0.412552, -0.00797514
1165.389050356000098, -0.00218534, -0.00276811, -0.000318582, 0.0282191, 0.41925, -0.00945819
1165.4225166890000764, -0.00217994, -0.0027849, -0.000353002, 0.0291367, 0.422678, -0.00424984
1165.4558330170000318, -0.00217794, -0.00278007, -0.000345281, 0.0302251, 0.42549, -0.00414834
1165.4891493840002568, -0.00217741, -0.00279153, -0.000343033, 0.0303567, 0.427009, -0.00462963
1165.5224657170001592, -0.0021745, -0.00280088, -0.000347964, 0.0300933, 0.427177, -0.00463024
1165.5557820510000511, -0.00217035, -0.00280664, -0.000359408, 0.0296252, 0.426388, -0.00414607
1165.5890983550000328, -0.00216226, -0.00284953, -0.000390514, 0.0292226, 0.429064, -0.00213636
1165.6224146840002049, -0.00215747, -0.0028923, -0.000398968, 0.0292874, 0.433365, -0.00163271
1165.6557310220000545, -0.0021539, -0.00289518, -0.00039038, 0.0287643, 0.432932, -0.00360539
1165.689047384000105, -0.00214784, -0.00291412, -0.000395116, 0.0281001, 0.434085, -0.00515497
1165.7223636840001291, -0.00213569, -0.00294677, -0.000416115, 0.0279561, 0.436914, -0.00447062
1165.7558300550001604, -0.00212897, -0.00297905, -0.000430442, 0.0277075, 0.439575, -0.00461783
1165.7891463840001052, -0.00212417, -0.00299752, -0.000445338, 0.0273674, 0.440974, -0.00522707
1165.8224626600001557, -0.00210171, -0.00303723, -0.000484125, 0.0268198, 0.44404, -0.00635585
1165.8557790510001269, -0.00208438, -0.00303706, -0.000518237, 0.0267648, 0.443144, -0.00600409
1165.8890953840002567, -0.00208339, -0.00306248, -0.000540784, 0.0266276, 0.445296, -0.00646001
1165.9224116840000534, -0.00208449, -0.00310257, -0.000565533, 0.0264738, 0.44845, -0.00716338
1165.9557280170001832, -0.00207129, -0.00311009, -0.000599773, 0.0266767, 0.44823, -0.00706311
1165.9890443550000327, -0.00206072, -0.00312539, -0.000634294, 0.0272954, 0.447364, -0.00549635
1166.0223607170000832, -0.00207282, -0.00310573, -0.000657016, 0.0282295, 0.443989, -0.00306729
1166.0556770510002025, -0.00206859, -0.00311188, -0.000723998, 0.0287883, 0.442727, -0.00507687
1166.0889933510002265, -0.00205767, -0.00314893, -0.000761072, 0.0292474, 0.4422, -0.00528179
1166.1224597170000834, -0.00206164, -0.00314796, -0.00077949, 0.0296001, 0.441084, -0.0057902
1166.1557760510002026, -0.00207255, -0.00316568, -0.000797497, 0.0294666, 0.44169, -0.00761761
1166.1890923510002267, -0.00207665, -0.00315004, -0.000811973, 0.0299188, 0.44051, -0.00804583
1166.2224086840001291, -0.00205951, -0.00309819, -0.000847404, 0.0311976, 0.436877, -0.00920189
1166.2557250510001268, -0.00205803, -0.00309572, -0.000869158, 0.03148, 0.435791, -0.0107148
1166.2890413840002566, -0.00206328, -0.00307155, -0.00091352, 0.0317892, 0.435109, -0.0145511
1166.322357717000159, -0.00206726, -0.00306343, -0.000918274, 0.0324977, 0.432733, -0.0137978
1166.3556740220001302, -0.00206022, -0.00301666, -0.000948628, 0.0339593, 0.428306, -0.0145226
1166.3889903550000327, -0.00205455, -0.0029982, -0.000980996, 0.0346603, 0.425668, -0.016314
1166.4223067170000832, -0.00205462, -0.00299784, -0.00100276, 0.0349303, 0.424283, -0.0173188
1166.4557730510000511, -0.00204856, -0.0030172, -0.00103541, 0.0354719, 0.421197, -0.0178894
1166.4890893840001809, -0.00204153, -0.00300912, -0.00108596, 0.0357372, 0.419753, -0.0203964
1166.5224057170000833, -0.002032, -0.00298907, -0.00112741, 0.0350802, 0.422442, -0.0240616
1166.5557220170001074, -0.00202428, -0.00295971, -0.00116123, 0.0351294, 0.422322, -0.0258333
1166.589038384000105, -0.00203254, -0.00294094, -0.00116205, 0.0354039, 0.421462, -0.0255134
1166.6223546890000762, -0.00204546, -0.00293375, -0.00115624, 0.0351108, 0.422931, -0.0262501
1166.655671022000206, -0.0020507, -0.00291637, -0.00115527, 0.0346891, 0.424794, -0.0276931
1166.6889873510001507, -0.00206118, -0.00293307, -0.00114589, 0.0344644, 0.42597, -0.0284246
1166.7223037170001589, -0.00207253, -0.00296411, -0.00113774, 0.0341295, 0.428098, -0.0300669
1166.755620017000183, -0.00207763, -0.0029736, -0.00114016, 0.0339333, 0.42902, -0.0308501
1166.7889363840001806, -0.00207259, -0.00297221, -0.00114833, 0.033777, 0.429278, -0.0312149
1166.8224026890002278, -0.00209262, -0.00297369, -0.00111771, 0.0340617, 0.429498, -0.0319062
1166.855719051000051, -0.00211638, -0.00299039, -0.00107999, 0.0339438, 0.431926, -0.0353564
1166.8890353840001808, -0.00213187, -0.00302595, -0.00105888, 0.0337581, 0.434952, -0.0384957
1166.9223517170000832, -0.0021415, -0.00306498, -0.00104575, 0.0334969, 0.43813, -0.0417215
1166.9556680510002025, -0.00215545, -0.00308137, -0.00102395, 0.0338696, 0.439139, -0.0424701
1166.9889843550001842, -0.00217326, -0.00310849, -0.00100298, 0.0342047, 0.441095, -0.043693
1167.022300684000129, -0.00219459, -0.00307764, -0.000931505, 0.034576, 0.440365, -0.0497612
1167.0556190890001744, -0.00219887, -0.00308757, -0.000905954, 0.0347369, 0.441573, -0.0523112
1167.0889333840002564, -0.00220296, -0.00309985, -0.000910813, 0.0342449, 0.442381, -0.0530312
1167.1222501170002488, -0.00220792, -0.00310133, -0.000887265, 0.0339902, 0.442655, -0.0562391
1167.155716122000058, -0.00223712, -0.00310724, -0.000823992, 0.034348, 0.444345, -0.0626402
1167.1890323840002566, -0.00224986, -0.00312794, -0.000795484, 0.0345811, 0.446679, -0.0657344
1167.2223486890002278, -0.00226953, -0.00315804, -0.000770266, 0.0352131, 0.450392, -0.0685295
1167.2556650600001831, -0.00226688, -0.00316256, -0.000766133, 0.0353849, 0.45113, -0.0689209
1167.2889813550000326, -0.00226726, -0.00319154, -0.000765738, 0.0358655, 0.454562, -0.0691044
1167.3222977220000303, -0.00226333, -0.00323011, -0.000772864, 0.0367917, 0.45973, -0.0690322
1167.3556140310001865, -0.00225566, -0.00326156, -0.000795706, 0.0372048, 0.462895, -0.0675402
1167.388930350000237, -0.00225888, -0.00330543, -0.000779913, 0.0376435, 0.467245, -0.0687904
1167.4222467170002346, -0.00226471, -0.00332888, -0.000764397, 0.0377522, 0.469336, -0.0696963
1167.4555630170000313, -0.00226558, -0.00335903, -0.00076197, 0.0375635, 0.470714, -0.0693119
1167.4888793550001083, -0.0022725, -0.003414, -0.000751759, 0.0383622, 0.476191, -0.0704308
1167.5223457170002348, -0.00228751, -0.0034442, -0.000735109, 0.0386939, 0.478659, -0.0710622
1167.5556620500001372, -0.00228652, -0.00342661, -0.000737755, 0.0390617, 0.478536, -0.072206
1167.5889783600000555, -0.00229325, -0.00342973, -0.000730101, 0.0394798, 0.479528, -0.0732227
1167.6222946890002277, -0.00230064, -0.00342324, -0.000708439, 0.0395948, 0.479662, -0.0737656
1167.6556110500000614, -0.00230741, -0.00342044, -0.000697776, 0.0396948, 0.479745, -0.0741429
1167.6889273500000854, -0.00229697, -0.0034192, -0.000690163, 0.0395724, 0.47966, -0.0738452
1167.7222436840002047, -0.0022907, -0.00341343, -0.000703951, 0.0395856, 0.479568, -0.0744248
1167.7555600220000542, -0.00228452, -0.00342508, -0.000729623, 0.0401206, 0.480095, -0.0761346
1167.7888763220000783, -0.00227141, -0.00343056, -0.000753338, 0.0406125, 0.480432, -0.0778739
1167.8221927170002346, -0.00226028, -0.00339381, -0.000770587, 0.0411082, 0.480947, -0.0803259
1167.855659050000213, -0.00226493, -0.00338736, -0.000784586, 0.041367, 0.481203, -0.0816311
1167.8889753840001049, -0.00225461, -0.00341377, -0.000817014, 0.0415612, 0.480682, -0.0836772
1167.922291684000129, -0.00225749, -0.00340802, -0.000836582, 0.0416756, 0.480924, -0.0853728
1167.9556080500001372, -0.00223845, -0.00338426, -0.000875219, 0.041889, 0.48171, -0.0888587
1167.9889243840002564, -0.00220797, -0.00340481, -0.000929269, 0.0420682, 0.480369, -0.0929156
1168.0222406880002382, -0.00219049, -0.00339523, -0.00096849, 0.0422562, 0.480409, -0.0961499
1168.0555581790001725, -0.00218008, -0.00335428, -0.000998735, 0.0422465, 0.482667, -0.0990219
1168.0888733500000853, -0.00217219, -0.00333953, -0.0010184, 0.0421987, 0.483492, -0.100786
1168.1221896880001623, -0.00217826, -0.00333436, -0.00102105, 0.042162, 0.483775, -0.101233
1168.155506017000107, -0.00215648, -0.00330976, -0.00105691, 0.0418307, 0.485979, -0.104851
1168.1889723840001807, -0.00214537, -0.00328216, -0.00106873, 0.041398, 0.488577, -0.107287
1168.2222886880001624, -0.00214421, -0.00326528, -0.00106524, 0.0409496, 0.490617, -0.10898
1168.2556050170001072, -0.00214164, -0.00325379, -0.00106514, 0.0407263, 0.491727, -0.110037
1168.2889213270002529, -0.0021487, -0.00325751, -0.00105735, 0.0406815, 0.491736, -0.109993
1168.3222377170002346, -0.00215473, -0.00325023, -0.00104171, 0.0407498, 0.491825, -0.109481
1168.3555540220002058, -0.00216414, -0.00325382, -0.00102463, 0.0407548, 0.49189, -0.109389
1168.3888703840002563, -0.00218383, -0.00325415, -0.00100323, 0.0407793, 0.492179, -0.10971
1168.4221866880002381, -0.00221956, -0.00326247, -0.000954136, 0.041002, 0.49245, -0.110136
1168.4555030220001299, -0.00224452, -0.00325956, -0.000908061, 0.0414191, 0.492172, -0.109951
1168.4888193840001804, -0.00224724, -0.00325828, -0.000895101, 0.0412669, 0.492924, -0.11126
1168.5221357170000829, -0.00225636, -0.00327194, -0.000868559, 0.0411875, 0.494262, -0.113642
1168.5556020220001301, -0.00227185, -0.00327431, -0.000834421, 0.0415113, 0.494703, -0.115364
1168.5889183550000325, -0.00228162, -0.00326666, -0.000803154, 0.0420375, 0.494509, -0.116473
1168.6222346880001624, -0.00229013, -0.00329738, -0.000770888, 0.0424337, 0.4962, -0.119161
1168.6555510500002129, -0.00230143, -0.00330839, -0.00073533, 0.0428127, 0.497176, -0.122154
1168.688867355000184, -0.00230652, -0.00331511, -0.000709736, 0.043229, 0.497787, -0.12438
1168.7221837170002345, -0.00231139, -0.00333033, -0.000682201, 0.0436551, 0.499018, -0.127116
1168.7555000220002057, -0.00231603, -0.00333501, -0.000667357, 0.0437473, 0.499631, -0.128593
1168.788816350000161, -0.00231298, -0.00334708, -0.000677261, 0.0438491, 0.500143, -0.128038
1168.822132688000238, -0.00230776, -0.00338663, -0.000681649, 0.0441152, 0.502339, -0.128254
1168.8554490220001298, -0.00230374, -0.00340126, -0.000686074, 0.044147, 0.503154, -0.127982
1168.8889153840002564, -0.00230257, -0.00341824, -0.000690429, 0.0443937, 0.504078, -0.128172
1168.9222316840000531, -0.00230335, -0.0034288, -0.00068725, 0.0447899, 0.504899, -0.129472
1168.9555480500000613, -0.0023052, -0.00344054, -0.000683669, 0.0451281, 0.505724, -0.130554
1168.9888643840001805, -0.00230239, -0.00343957, -0.000671616, 0.0454804, 0.505852, -0.132179
1169.022180660000231, -0.00230021, -0.00343901, -0.000677706, 0.0458768, 0.505749, -0.133387
1169.0554970500002128, -0.00229634, -0.00343982, -0.00067314, 0.0459102, 0.505839, -0.133675
1169.0888133840001046, -0.0022961, -0.0034242, -0.000653643, 0.0459725, 0.505366, -0.134346
1169.1221296840001287, -0.00228146, -0.00340465, -0.000661694, 0.0459171, 0.504713, -0.134597
1169.1554460500001369, -0.0022713, -0.00338689, -0.000676479, 0.0461271, 0.503956, -0.135656
1169.1887643450002088, -0.00227771, -0.00339906, -0.000679768, 0.04646, 0.503835, -0.136361
1169.2220786840000528, -0.00227593, -0.00338906, -0.000699351, 0.0466825, 0.503699, -0.137798
1169.2555450220002058, -0.00226762, -0.00337969, -0.000729456, 0.0468967, 0.503694, -0.139577
1169.2888613690001876, -0.00226629, -0.00336935, -0.00073837, 0.0470947, 0.50386, -0.140592
1169.3221777170001587, -0.00227161, -0.00336158, -0.000757257, 0.0474259, 0.504085, -0.142341
1169.3554939930002092, -0.00227071, -0.00336054, -0.000784957, 0.0474223, 0.504465, -0.143911
1169.3888103600002069, -0.00227235, -0.00336205, -0.000806997, 0.0473024, 0.504715, -0.145069
1169.4221267170000829, -0.00227542, -0.00336863, -0.000839049, 0.047187, 0.504874, -0.147052
1169.4554430170001069, -0.00226763, -0.0033676, -0.000864278, 0.0469502, 0.505506, -0.148961
1169.4887593830001151, -0.00224777, -0.00335981, -0.000901785, 0.0469131, 0.506303, -0.151653
1169.5220757170002344, -0.00224413, -0.0033423, -0.000938201, 0.0472666, 0.507219, -0.153862
1169.5553920500001368, -0.00223735, -0.00333426, -0.000968276, 0.0473113, 0.507777, -0.156001
1169.588858326000036, -0.00223556, -0.00334063, -0.000979031, 0.0469892, 0.507706, -0.15742
1169.6221746880000865, -0.00223884, -0.00334135, -0.000985196, 0.0468204, 0.507428, -0.158356
1169.655491050000137, -0.00224523, -0.0033425, -0.000988709, 0.0465699, 0.507156, -0.159627
1169.688807350000161, -0.00225086, -0.00334181, -0.000985386, 0.0462564, 0.506871, -0.161072
1169.7221236550001322, -0.00226528, -0.003345, -0.000964774, 0.0460349, 0.506654, -0.161323
1169.7554400170001827, -0.00229451, -0.00332406, -0.000951199, 0.046058, 0.507462, -0.160959
1169.7887563550000323, -0.00230595, -0.00335457, -0.000938237, 0.0458197, 0.506241, -0.161552
1169.8220728170001621, -0.00231464, -0.00338756, -0.000925774, 0.0454848, 0.504864, -0.16295
1169.8553890500002126, -0.00231578, -0.00337894, -0.000911405, 0.0452851, 0.504828, -0.164133
1169.8887053550001838, -0.00231713, -0.0033853, -0.000899281, 0.0451644, 0.504555, -0.164954
1169.9220217170002343, -0.00231666, -0.003394, -0.00089105, 0.0449043, 0.503971, -0.166403
1169.9554880500002128, -0.00231722, -0.00341367, -0.000888443, 0.0448601, 0.503755, -0.166769
1169.9888043550001839, -0.00232044, -0.00342391, -0.000882524, 0.0448229, 0.503744, -0.167265
1170.0221206880000864, -0.00231669, -0.00342834, -0.000869301, 0.0448736, 0.504024, -0.167803
1170.0554372170001898, -0.0023235, -0.00343015, -0.000853635, 0.0449365, 0.504347, -0.16858
1170.0887533830000393, -0.00233319, -0.00341492, -0.000835532, 0.0448491, 0.503912, -0.169658
1170.1220696880002379, -0.00233824, -0.00342103, -0.000814589, 0.0451235, 0.504885, -0.170352
1170.155386050000061, -0.00233722, -0.00343582, -0.000801691, 0.0454163, 0.506026, -0.17072
1170.1887023830001908, -0.00233761, -0.00343917, -0.000784627, 0.0453118, 0.505972, -0.171443
1170.2220187170000827, -0.00234412, -0.00345013, -0.000746379, 0.0458135, 0.507606, -0.172912
1170.2553350500002125, -0.00234265, -0.0034606, -0.000736646, 0.0456959, 0.507614, -0.173118
1170.2888013310000588, -0.00234509, -0.00347338, -0.000730374, 0.0455707, 0.507633, -0.17306
1170.3221177170000828, -0.0023475, -0.00348966, -0.000722376, 0.0453143, 0.507527, -0.172659
1170.3554340210000646, -0.00234291, -0.00351938, -0.000721652, 0.0454416, 0.507997, -0.172641
1170.3887503830001151, -0.00234385, -0.00352568, -0.000711467, 0.0455769, 0.508184, -0.172926
1170.4220667170002343, -0.00234676, -0.00352584, -0.000699269, 0.0455884, 0.508229, -0.17292
1170.4553830210002161, -0.00234263, -0.00352413, -0.000688292, 0.0456188, 0.508325, -0.172749
1170.4886993830000392, -0.00234829, -0.00351793, -0.000676578, 0.0458118, 0.508355, -0.173111
1170.5220157170001585, -0.00235225, -0.0035205, -0.000655032, 0.0457643, 0.508245, -0.17201
1170.5553320500000609, -0.00235535, -0.00351425, -0.000631881, 0.0454596, 0.508402, -0.169873
1170.5886483830001907, -0.00235361, -0.00350837, -0.000634296, 0.0456301, 0.508838, -0.17081
1170.6219647170000826, -0.00237063, -0.00349674, -0.000624518, 0.0457665, 0.509678, -0.170726
1170.6554310500000611, -0.00236285, -0.003482, -0.000627561, 0.046015, 0.511328, -0.171862
1170.6887473500000851, -0.00236814, -0.00347483, -0.000611501, 0.0463741, 0.511776, -0.171996
1170.7220637170000828, -0.0023748, -0.00346272, -0.000602999, 0.0466, 0.512812, -0.172078
1170.7553800170001068, -0.00238152, -0.00345431, -0.000603597, 0.0468785, 0.513717, -0.173169
1170.788696383000115, -0.0023944, -0.00342523, -0.00061571, 0.0472661, 0.518189, -0.175699
1170.8220126830001391, -0.00237956, -0.00338946, -0.000622652, 0.0476292, 0.524291, -0.177222
1170.8553290170000309, -0.00238201, -0.00339012, -0.000638977, 0.0476685, 0.524575, -0.179164
1170.8886453830000391, -0.0023886, -0.00339056, -0.000637951, 0.0474984, 0.524265, -0.178758
1170.9219617170001584, -0.00240723, -0.00338557, -0.000634754, 0.0473437, 0.524204, -0.178417
1170.9552780500000608, -0.00241996, -0.00337967, -0.000641599, 0.0471399, 0.525291, -0.17968
1170.9887443500001609, -0.00242288, -0.00337067, -0.000643793, 0.047123, 0.526895, -0.17943
1171.0220607170001585, -0.00242485, -0.00335767, -0.000652941, 0.0471219, 0.529836, -0.180367
1171.0553770170001826, -0.00242979, -0.00333077, -0.000662183, 0.0471768, 0.535749, -0.181057
1171.088693350000085, -0.00244145, -0.00331011, -0.00066863, 0.0470695, 0.539908, -0.182383
1171.1220097120001356, -0.00245349, -0.00328671, -0.000666726, 0.047143, 0.54406, -0.181436
1171.1553260210000644, -0.00246423, -0.00327247, -0.000659786, 0.0470824, 0.545937, -0.180365
1171.1886423500002365, -0.00247612, -0.00325802, -0.000648391, 0.0467764, 0.54764, -0.180335
1171.2219586970002183, -0.0024815, -0.00324152, -0.000643734, 0.0464378, 0.549572, -0.181574
1171.2552750500001366, -0.00248231, -0.00324062, -0.000646408, 0.0462372, 0.54864, -0.182946
1171.2885913550001078, -0.00248883, -0.00321903, -0.00064751, 0.0462072, 0.552088, -0.183527
1171.3220577400002185, -0.00249103, -0.00321097, -0.000632526, 0.0460956, 0.553251, -0.182328
1171.3553740500001368, -0.00249582, -0.00321575, -0.000615491, 0.0459693, 0.552287, -0.181115
1171.3886903830000392, -0.00249307, -0.00321634, -0.000605382, 0.0456803, 0.551332, -0.181163
1171.4220067070000368, -0.00248079, -0.00322478, -0.000591199, 0.0455207, 0.549777, -0.180358
1171.4553230500000609, -0.00247513, -0.00322322, -0.000579358, 0.0456943, 0.551175, -0.179155
1171.4886393210001643, -0.00247537, -0.00321571, -0.000558811, 0.0457573, 0.553163, -0.17775
1171.5219556550000561, -0.00248253, -0.00322371, -0.000533643, 0.0455946, 0.552343, -0.176567
1171.5552720210000643, -0.0024753, -0.00322486, -0.000509192, 0.0456897, 0.553326, -0.175269
1171.58858837400021, -0.00246679, -0.0032529, -0.000493827, 0.0462744, 0.553179, -0.174422
1171.6219046590001653, -0.00246931, -0.00326289, -0.00047598, 0.0467212, 0.554171, -0.173777
1171.6552210500001365, -0.0024638, -0.00325368, -0.000465123, 0.0467907, 0.55532, -0.173325
1171.688687383000115, -0.00245866, -0.00326028, -0.000452326, 0.0472036, 0.557293, -0.173191
1171.7220037160002448, -0.00246339, -0.00327171, -0.000429163, 0.0475603, 0.558543, -0.172717
1171.7553200500001367, -0.00246147, -0.00326927, -0.000408698, 0.0475032, 0.5588, -0.171908
1171.7886363500001607, -0.00246069, -0.00326143, -0.000397837, 0.0478761, 0.561757, -0.17206
1171.8219527160001689, -0.00244865, -0.00325851, -0.000394062, 0.0490528, 0.566871, -0.173975
1171.8552690500000608, -0.00244357, -0.00326117, -0.000374075, 0.0492813, 0.567902, -0.173733
1171.8885853830001906, -0.00245773, -0.00324045, -0.000342411, 0.0498726, 0.572298, -0.173852
1171.9219016880001618, -0.0024593, -0.00325107, -0.00033368, 0.0501055, 0.572457, -0.174018
1171.9552180160001171, -0.00245489, -0.00325552, -0.000327857, 0.0501444, 0.572609, -0.173895
1171.9885343830001148, -0.00246875, -0.00324874, -0.000306049, 0.0505957, 0.57509, -0.173879
1172.0220007210000404, -0.00247667, -0.003247, -0.000300353, 0.0509151, 0.576186, -0.174398
1172.0553170500002125, -0.00248033, -0.00324683, -0.00030571, 0.0512569, 0.576519, -0.175486
1172.0886333830001149, -0.00248732, -0.00323185, -0.000299436, 0.0516764, 0.578841, -0.175989
1172.1219497160002447, -0.00249586, -0.00320965, -0.000294088, 0.0520104, 0.581509, -0.176299
1172.1552660210002159, -0.00250313, -0.00320592, -0.000310741, 0.0521674, 0.581527, -0.177344
1172.188582383000039, -0.00250464, -0.00320841, -0.000327848, 0.051983, 0.58108, -0.17779
1172.2218987160001689, -0.00251361, -0.00320027, -0.000338371, 0.0518076, 0.581957, -0.178103
1172.2552150160001929, -0.00251618, -0.00319106, -0.000340167, 0.0515217, 0.583226, -0.178038
1172.2885313930000848, -0.0025104, -0.00318025, -0.0003565, 0.0512982, 0.584752, -0.178896
1172.3218476830002146, -0.00250221, -0.00319106, -0.000369439, 0.0511055, 0.584087, -0.179601
1172.3551640500002122, -0.00250107, -0.00319599, -0.000377328, 0.0508708, 0.584367, -0.180326
1172.3886303830001907, -0.00250638, -0.00318647, -0.00037574, 0.0504688, 0.58644, -0.181799
1172.4219466880001619, -0.00249931, -0.00319934, -0.000383591, 0.0497731, 0.58749, -0.184759
1172.4552630160001172, -0.00250495, -0.00320365, -0.000385871, 0.0496947, 0.587311, -0.185049
1172.4885793830001148, -0.00250438, -0.00319322, -0.000392517, 0.0495745, 0.58775, -0.185605
1172.5218956640001124, -0.00251177, -0.00318, -0.000388794, 0.0494313, 0.588355, -0.186501
1172.5552120160000413, -0.0025251, -0.00318382, -0.000382696, 0.0492764, 0.588401, -0.187664
1172.588528383000039, -0.00253333, -0.00317917, -0.000377853, 0.048944, 0.588581, -0.189853
1172.6218446880002375, -0.00254162, -0.00317136, -0.000371266, 0.0488015, 0.588577, -0.190968
1172.6551610500000606, -0.00255532, -0.00317181, -0.000355657, 0.0487405, 0.588626, -0.192262
1172.6884773500000847, -0.00255035, -0.00318654, -0.000358275, 0.0487148, 0.588798, -0.192498
1172.7219437160001689, -0.00254484, -0.00320041, -0.000347425, 0.048769, 0.589264, -0.193299
1172.755260016000193, -0.0025461, -0.00321246, -0.000330439, 0.0488348, 0.589883, -0.194687
1172.7885763830001906, -0.00256034, -0.00321091, -0.000314479, 0.0488088, 0.589989, -0.196405
1172.8218926880001618, -0.00256652, -0.00320188, -0.000292113, 0.0488513, 0.589935, -0.198367
1172.8552089880001859, -0.00256539, -0.00322026, -0.00028583, 0.0489282, 0.591275, -0.199383
1172.8885253540001941, -0.00255859, -0.00322242, -0.000287142, 0.0487123, 0.590777, -0.19986
1172.9218417160002446, -0.00255476, -0.0032189, -0.000274234, 0.0486091, 0.590289, -0.201316
1172.9551580160000412, -0.00254776, -0.00321808, -0.000264917, 0.0487192, 0.590605, -0.202038
1172.9884743970001182, -0.00254576, -0.0032036, -0.000257842, 0.0484154, 0.58863, -0.202788
1173.0217906830000629, -0.00254522, -0.00319551, -0.000246321, 0.0484475, 0.58816, -0.203953
1173.0551070160001927, -0.00254265, -0.00320551, -0.000241457, 0.0487733, 0.589975, -0.204814
1173.088573383000039, -0.00253676, -0.00321874, -0.000237874, 0.0491473, 0.592161, -0.205688
1173.1218897160001688, -0.00253607, -0.00323337, -0.000232778, 0.0496771, 0.594948, -0.207099
1173.15520602100014, -0.00253907, -0.0032322, -0.000225522, 0.0499702, 0.595734, -0.208342
1173.1885223540000425, -0.00254192, -0.00324581, -0.000221181, 0.0504449, 0.598161, -0.209894
1173.2218386830002146, -0.00254018, -0.0032443, -0.000231576, 0.0503959, 0.597809, -0.208891
1173.2551550500002122, -0.00253146, -0.00323867, -0.000244838, 0.0501449, 0.596595, -0.207047
1173.288471354000194, -0.00253181, -0.00324363, -0.000248775, 0.050455, 0.59752, -0.207779
1173.3217877160002445, -0.00252707, -0.00326274, -0.000258279, 0.0507711, 0.599604, -0.208067
1173.3551040210002157, -0.0025283, -0.00327567, -0.000265294, 0.0511063, 0.600891, -0.208799
1173.3884203830000388, -0.00252985, -0.00327946, -0.00027269, 0.0514067, 0.60142, -0.209619
1173.4218867160002446, -0.00254154, -0.00327736, -0.000286787, 0.0514821, 0.601149, -0.209456
1173.4552029920000678, -0.00254298, -0.00327479, -0.000294277, 0.0516225, 0.600983, -0.209863
1173.4885193830000389, -0.00256484, -0.00326885, -0.000302655, 0.051714, 0.600542, -0.210093
1173.5218357160001688, -0.00257935, -0.0032624, -0.000311085, 0.0517578, 0.600175, -0.210268
1173.5551520500000606, -0.00258405, -0.00326879, -0.000332334, 0.0516728, 0.600482, -0.209564
1173.5884683540000424, -0.00258084, -0.00328158, -0.000355602, 0.0515755, 0.601091, -0.2088
1173.6217851970002357, -0.00258295, -0.00327785, -0.000370558, 0.0514948, 0.600897, -0.208559
1173.6551010350001434, -0.00258346, -0.0032841, -0.000405597, 0.0512066, 0.601183, -0.207599
1173.6884173210000881, -0.00258204, -0.00329915, -0.000461538, 0.0506196, 0.601865, -0.205954
1173.7217336830001386, -0.00257518, -0.00331234, -0.000478584, 0.050362, 0.602432, -0.205329
1173.7550500490001468, -0.00258394, -0.00330531, -0.000495456, 0.0501246, 0.602114, -0.205071
1173.7885163830001147, -0.0025849, -0.00330085, -0.000511051, 0.0497986, 0.601927, -0.204826
1173.8218326880000859, -0.00258666, -0.00330517, -0.000517571, 0.0493707, 0.602167, -0.204769
1173.855149049000147, -0.00258264, -0.00331474, -0.000527563, 0.0489709, 0.602624, -0.204721
1173.8884653540001182, -0.00258199, -0.00331719, -0.000540752, 0.0485175, 0.602648, -0.20474
1173.9217821690001529, -0.00259173, -0.00330445, -0.000549378, 0.0481125, 0.601834, -0.204936
1173.9550980160001927, -0.00259524, -0.00329663, -0.000542566, 0.0481169, 0.601454, -0.205202
1173.9884143830001904, -0.00259496, -0.00330319, -0.00052918, 0.0482001, 0.602107, -0.205808
1174.0217356390000987, -0.00259455, -0.00331715, -0.000515624, 0.0483378, 0.603353, -0.206552
1174.055063501000177, -0.00259836, -0.00333399, -0.000505229, 0.0484879, 0.604841, -0.207218
1174.0883912670001337, -0.00259776, -0.00334112, -0.000501777, 0.0485043, 0.605472, -0.207517
1174.1217190890001802, -0.00259274, -0.00334697, -0.000494934, 0.0483958, 0.60601, -0.20843
1174.1551969350000491, -0.00258884, -0.00333608, -0.000481479, 0.0481517, 0.604666, -0.20968
1174.1885247290001644, -0.00257593, -0.00333334, -0.000474688, 0.0479263, 0.604076, -0.210417
1174.2218524900001739, -0.00257328, -0.00332948, -0.000467912, 0.0476821, 0.60342, -0.210954
1174.2551802890002364, -0.00258209, -0.00330503, -0.000441393, 0.0474853, 0.600567, -0.213375
1174.2885080830001243, -0.00256633, -0.00330826, -0.000438557, 0.0476541, 0.601169, -0.214109
1174.3218358730000546, -0.00255803, -0.00331122, -0.000437094, 0.0476401, 0.60133, -0.214187
1174.3551637000000483, -0.00255539, -0.00331525, -0.000435315, 0.0476257, 0.601701, -0.214274
1174.3884914610000578, -0.00255173, -0.00332862, -0.000443592, 0.0476232, 0.603127, -0.213389
1174.4218192880000515, -0.00254804, -0.00333974, -0.000437807, 0.0476162, 0.604211, -0.213849
1174.4551470820001668, -0.00254433, -0.00335403, -0.000432426, 0.0475852, 0.60573, -0.213998
1174.4886248950001573, -0.00254225, -0.00336828, -0.000428343, 0.0476801, 0.607387, -0.21455
1174.5219526890000452, -0.00253113, -0.00337782, -0.000422122, 0.0477512, 0.608598, -0.215145
1174.5552805170002557, -0.00252575, -0.0033892, -0.000424367, 0.0477097, 0.609708, -0.214639
1174.5886083110001437, -0.00252262, -0.0033974, -0.000437812, 0.0478565, 0.610649, -0.214619
1174.6219363530001374, -0.00252887, -0.00341388, -0.000453939, 0.0481459, 0.612413, -0.215301
1174.6552638660000412, -0.00253431, -0.00341297, -0.000454992, 0.0483697, 0.612503, -0.216595
1174.6885916930000349, -0.00254813, -0.00340368, -0.000466933, 0.0483512, 0.611836, -0.216552
1174.7219194870001502, -0.00255557, -0.00337779, -0.000467917, 0.0486893, 0.610282, -0.219155
1174.7552472810000381, -0.00255544, -0.00338976, -0.000454872, 0.0489411, 0.611117, -0.220422
1174.7885750470002222, -0.00256064, -0.00339242, -0.000472236, 0.0488341, 0.611293, -0.219815
1174.8219028700000308, -0.00256283, -0.00338465, -0.00048377, 0.0490602, 0.611052, -0.221399
1174.8553806870002063, -0.00255256, -0.00338575, -0.000475733, 0.049043, 0.611036, -0.22123
1174.8887084480002159, -0.00256524, -0.00337287, -0.000512476, 0.0487112, 0.610825, -0.220207
1174.9220362700000351, -0.00257039, -0.00338231, -0.000526725, 0.0484347, 0.611397, -0.218852
1174.9553640690000975, -0.00257816, -0.00338088, -0.000539012, 0.0483759, 0.611478, -0.218798
1174.9886918920001335, -0.00257737, -0.00335403, -0.000539776, 0.0489821, 0.610112, -0.222033
1175.022015096000132, -0.00257631, -0.00333476, -0.000549193, 0.0486138, 0.610148, -0.220911
1175.0553310170000714, -0.0025758, -0.00332738, -0.000551465, 0.0482852, 0.6106, -0.219734
1175.0886473830000796, -0.00258661, -0.00331569, -0.000566217, 0.048072, 0.610939, -0.219523
1175.1219637160002094, -0.00259578, -0.00331361, -0.000595911, 0.0479125, 0.611515, -0.219865
1175.155430054000135, -0.00259962, -0.00330655, -0.000595741, 0.047445, 0.612835, -0.21849
1175.1887463490002119, -0.00260522, -0.00329603, -0.000615541, 0.0471606, 0.613678, -0.218357
1175.2220627160002095, -0.00260631, -0.00328953, -0.000628001, 0.0470521, 0.614053, -0.218566
1175.2553790210001807, -0.00261504, -0.00328269, -0.000638611, 0.0469836, 0.614288, -0.218824
1175.2886953210002048, -0.00262219, -0.00327194, -0.000657859, 0.0470061, 0.614174, -0.219522
1175.3220117160001337, -0.00262396, -0.00326128, -0.000671437, 0.0470415, 0.61406, -0.220043
1175.3553280160001577, -0.00262484, -0.00326179, -0.000687717, 0.0468043, 0.614955, -0.220138
1175.3886443490000602, -0.00262675, -0.00326616, -0.000695987, 0.0464678, 0.616276, -0.219865
1175.4219607160000578, -0.00263734, -0.00326094, -0.000700602, 0.0465666, 0.615833, -0.220122
1175.4552770250002141, -0.00264291, -0.00325367, -0.000705866, 0.0464658, 0.616206, -0.220062
1175.4885933590001059, -0.00264945, -0.00325192, -0.000705911, 0.0464596, 0.616262, -0.220019
1175.5220596830001796, -0.00266053, -0.00325073, -0.000716073, 0.0465585, 0.615779, -0.220071
1175.5553760490001878, -0.00266371, -0.00324342, -0.000709492, 0.0465831, 0.615637, -0.220176
1175.5886923440000373, -0.00266327, -0.00324738, -0.000684366, 0.0466234, 0.615962, -0.220705
1175.6220086830001037, -0.00266202, -0.00324688, -0.000674689, 0.0466669, 0.615951, -0.221014
1175.6553250210001806, -0.00266476, -0.00324648, -0.000659904, 0.046481, 0.616899, -0.221343
1175.6886413830002311, -0.00265677, -0.00325405, -0.000638302, 0.0463158, 0.618292, -0.222013
1175.7219576870002129, -0.0026648, -0.00325659, -0.000664538, 0.0465665, 0.616862, -0.221198
1175.7552740160001576, -0.00267686, -0.0032446, -0.000687578, 0.0461498, 0.617696, -0.219894
1175.7885903830001553, -0.0026757, -0.00323641, -0.00068652, 0.0458481, 0.618685, -0.219729
1175.821906687000137, -0.00268165, -0.00323536, -0.000684169, 0.0459908, 0.617887, -0.219896
1175.8553730490000362, -0.00267873, -0.00323382, -0.000678313, 0.0458993, 0.61834, -0.220123
1175.8886893830001554, -0.00267664, -0.0032378, -0.000686327, 0.046289, 0.615983, -0.219965
1175.9220057160000579, -0.00266512, -0.00320646, -0.000684405, 0.0469415, 0.60994, -0.220543
1175.9553220210002564, -0.00267866, -0.00322021, -0.000684111, 0.0470397, 0.610433, -0.220617
1175.9886383820000901, -0.00270259, -0.0032209, -0.000695889, 0.0468578, 0.611742, -0.219736
1176.0219547160002094, -0.00273651, -0.00322083, -0.000705134, 0.0467131, 0.613163, -0.219064
1176.0552709870000854, -0.00276314, -0.00323794, -0.000721772, 0.0461905, 0.619412, -0.217872
1176.0885873820002416, -0.00275121, -0.00323934, -0.000713878, 0.0462972, 0.618862, -0.218391
1176.1219037160001335, -0.00273485, -0.00323046, -0.00070423, 0.0468479, 0.61307, -0.219296
1176.1552233540000998, -0.0027168, -0.003243, -0.000689486, 0.0468671, 0.614638, -0.220334
1176.1885363820001658, -0.00271701, -0.00324562, -0.000691355, 0.0466162, 0.617682, -0.22009
1176.2220027160001337, -0.00267257, -0.00324397, -0.000681814, 0.0463105, 0.621652, -0.220669
1176.255318987000237, -0.00266894, -0.00324423, -0.000678259, 0.0462228, 0.622873, -0.220873
1176.288635387000113, -0.00269093, -0.00322932, -0.000692099, 0.0464312, 0.618472, -0.219665
1176.3219517160000578, -0.00267925, -0.00321117, -0.000694541, 0.0464897, 0.615282, -0.219384
1176.3552680490001876, -0.0026938, -0.00321371, -0.000723784, 0.0460313, 0.618068, -0.217154
1176.3885843970001588, -0.00273478, -0.00320257, -0.000746357, 0.0455493, 0.620014, -0.215459
1176.4219006870000612, -0.00275499, -0.00319696, -0.000751374, 0.045328, 0.621405, -0.215178
1176.4552170210001805, -0.00278121, -0.00319101, -0.000756664, 0.0452314, 0.621423, -0.214809
1176.4885333540000829, -0.00278755, -0.00319345, -0.000750713, 0.045044, 0.622776, -0.215272
1176.5218496590000541, -0.00283236, -0.0031929, -0.000768844, 0.0449052, 0.622835, -0.213885
1176.5553160160002335, -0.00286907, -0.00319878, -0.00077234, 0.0449267, 0.622618, -0.213504
1176.5886323490001359, -0.00287921, -0.00322274, -0.000761219, 0.0449203, 0.624806, -0.21414
1176.62194869200016, -0.00288458, -0.00324712, -0.000756463, 0.0448485, 0.627128, -0.214254
1176.655265049000036, -0.00290864, -0.00325241, -0.000760337, 0.0445876, 0.629104, -0.213571
1176.6885813820001658, -0.00293109, -0.00321888, -0.000767978, 0.0440582, 0.629472, -0.212656
1176.7218977160000577, -0.00293158, -0.00322528, -0.000772328, 0.0439241, 0.630628, -0.212301
1176.7552139870001611, -0.00292035, -0.00321425, -0.000771287, 0.0441293, 0.629088, -0.212551
1176.7885303490002116, -0.00292958, -0.0032159, -0.000779813, 0.0440547, 0.628676, -0.211831
1176.8218466870000611, -0.00292192, -0.0032139, -0.00079022, 0.0438115, 0.627086, -0.211011
1176.855163020000191, -0.00293359, -0.00320455, -0.000809405, 0.0433983, 0.627674, -0.208849
1176.8884793820002415, -0.00293096, -0.00318367, -0.000816759, 0.0428664, 0.628404, -0.207406
1176.9219457160002094, -0.0029325, -0.00319305, -0.000817918, 0.0429522, 0.62912, -0.207444
1176.9552620490001118, -0.00287675, -0.00319823, -0.000809464, 0.0428561, 0.630327, -0.20792
1176.9885783820002416, -0.00277942, -0.00321129, -0.000801466, 0.0428061, 0.631953, -0.208409
1177.0218946870002128, -0.00271894, -0.00322226, -0.000815942, 0.0425856, 0.634342, -0.206709
1177.0552110160001575, -0.00264643, -0.00324521, -0.000828212, 0.0427015, 0.636631, -0.205781
1177.08852734900006, -0.00257962, -0.00325968, -0.000840743, 0.0426333, 0.638798, -0.204529
1177.1218436870001369, -0.00251515, -0.0032725, -0.000853792, 0.0426262, 0.640279, -0.203495
1177.1551600200000394, -0.00244987, -0.00328335, -0.000862819, 0.0425959, 0.641798, -0.20272
1177.1884763820000899, -0.00241436, -0.0032882, -0.000877329, 0.0425382, 0.642775, -0.201568
1177.2217927160002091, -0.00238412, -0.00329349, -0.000893946, 0.0425224, 0.643377, -0.200448
1177.2552589920001083, -0.00236814, -0.00329047, -0.000914899, 0.0424062, 0.643419, -0.199011
1177.2885753490002116, -0.00233196, -0.00329271, -0.000922032, 0.0423921, 0.643602, -0.198601
1177.3218916870000612, -0.00229634, -0.00328565, -0.000927144, 0.0422684, 0.643661, -0.19811
1177.3552080490001117, -0.00224855, -0.00328629, -0.000928315, 0.042267, 0.643705, -0.19811
1177.3885243540000829, -0.00220741, -0.00328223, -0.000931256, 0.0422002, 0.643822, -0.197914
1177.4218407160001334, -0.00218409, -0.00328089, -0.000940219, 0.0421666, 0.643863, -0.197506
1177.4551570200001152, -0.00215166, -0.00328393, -0.000944633, 0.042156, 0.643909, -0.197389
1177.4884733540002344, -0.00213783, -0.00328654, -0.000946936, 0.0421386, 0.643991, -0.197322
1177.5217897160000575, -0.00213489, -0.00329048, -0.000954766, 0.0421043, 0.644007, -0.196993
1177.5551060160000816, -0.00213118, -0.00329731, -0.000960708, 0.0420744, 0.644106, -0.196722
1177.5885723490000601, -0.0021261, -0.00330215, -0.000967662, 0.0420084, 0.644194, -0.196368
1177.6218886820001899, -0.00211765, -0.00330781, -0.00097269, 0.0419311, 0.644211, -0.196072
1177.6552050490001875, -0.00212303, -0.00331513, -0.000980072, 0.0418607, 0.644331, -0.19565
1177.6885213820000899, -0.00213004, -0.00332294, -0.000979308, 0.0418034, 0.644209, -0.195425
1177.7218376920002356, -0.00214077, -0.00332913, -0.000983697, 0.0417143, 0.644246, -0.195074
1177.7551540490001116, -0.00214624, -0.0033365, -0.000986468, 0.0416285, 0.644311, -0.194781
1177.7884703490001357, -0.00219638, -0.00333801, -0.000991235, 0.0415332, 0.64428, -0.194426
1177.8217866820000381, -0.00219705, -0.00334275, -0.000992761, 0.041424, 0.644426, -0.194112
1177.8551030200001151, -0.00220406, -0.00334737, -0.000996503, 0.0413335, 0.644537, -0.193782
1177.8884193820001656, -0.00220245, -0.00335025, -0.000999732, 0.0412308, 0.644669, -0.193464
1177.9217357160000574, -0.00220804, -0.00335701, -0.000999856, 0.0412235, 0.644732, -0.193422
1177.9552020160001575, -0.0022122, -0.00336185, -0.00100181, 0.0411867, 0.644815, -0.193261
1177.9885183820001657, -0.00221526, -0.00336483, -0.00100419, 0.0411151, 0.644894, -0.19305
1178.0218347160000576, -0.00221875, -0.00337599, -0.00100433, 0.0411573, 0.644898, -0.193122
1178.055150987000161, -0.00220996, -0.0033808, -0.00100696, 0.0410949, 0.64512, -0.192918
1178.0884673820000899, -0.00219227, -0.00338259, -0.001008, 0.0409899, 0.645377, -0.192704
1178.1217837160002091, -0.00216663, -0.00338581, -0.0010094, 0.0409248, 0.645686, -0.19255
1178.1551000490001115, -0.00216084, -0.0033869, -0.00101549, 0.0408547, 0.64594, -0.192263
1178.1884163820002414, -0.00214296, -0.00338954, -0.00101884, 0.0408368, 0.64613, -0.192197
1178.2217327150001438, -0.00213144, -0.00338765, -0.00102493, 0.0407036, 0.646345, -0.191823
1178.255049020000115, -0.00211974, -0.00338824, -0.00103256, 0.0405942, 0.646542, -0.191488
1178.2885153540000829, -0.00210673, -0.00338791, -0.00103948, 0.0405251, 0.646675, -0.191248
1178.3218316870002127, -0.00211655, -0.00339067, -0.00104864, 0.0405347, 0.646653, -0.191123
1178.355148606000057, -0.0021297, -0.00339609, -0.0010553, 0.0405232, 0.646691, -0.190986
1178.3884643820001656, -0.00213674, -0.00339723, -0.00106039, 0.0404732, 0.646759, -0.190806
1178.4217807150000681, -0.00214717, -0.00340132, -0.00106539, 0.0404406, 0.646814, -0.190653
1178.4550970200000393, -0.0021601, -0.00340467, -0.00106973, 0.0404095, 0.646836, -0.190523
1178.4884133540001585, -0.00216798, -0.00340577, -0.00107346, 0.0403598, 0.646908, -0.190376
1178.5217296820001138, -0.00218291, -0.00340904, -0.00107551, 0.0403424, 0.646919, -0.190317
1178.5550460150002436, -0.00219679, -0.00341407, -0.00107814, 0.0403088, 0.646998, -0.190205
1178.5883623820002413, -0.00221428, -0.00341749, -0.00108003, 0.0402604, 0.647094, -0.19006
1178.6216786580000644, -0.00223404, -0.00342425, -0.00108131, 0.0402452, 0.647166, -0.189996
1178.6551450150002438, -0.00225633, -0.0034276, -0.0010814, 0.0401813, 0.647276, -0.189815
1178.6884613540000828, -0.00228176, -0.003432, -0.00108124, 0.0401464, 0.647335, -0.189711
1178.7217776820000381, -0.00230403, -0.00343563, -0.00108097, 0.0400916, 0.647452, -0.189562
1178.7550940150001679, -0.0023267, -0.00343763, -0.0010808, 0.0400225, 0.647602, -0.189367
1178.7884103490000598, -0.00235188, -0.00343961, -0.00108172, 0.039962, 0.647722, -0.189181
1178.821726715000068, -0.00237474, -0.00343821, -0.00108287, 0.0398653, 0.647898, -0.188904
1178.8550430200000392, -0.00239778, -0.00343827, -0.00108254, 0.039818, 0.647978, -0.188778
1178.8883593490002113, -0.00241825, -0.00344046, -0.00108141, 0.0398076, 0.647996, -0.188755
1178.9216757150002195, -0.0024308, -0.00344131, -0.00108054, 0.0397544, 0.648115, -0.188616
1178.9549920150002436, -0.00244193, -0.00344326, -0.0010797, 0.0397025, 0.648231, -0.18849
1178.9884583530001692, -0.00245565, -0.0034439, -0.00107959, 0.039653, 0.648311, -0.188361
1179.0217747150002197, -0.00246662, -0.00344448, -0.00107944, 0.0395957, 0.648423, -0.188196
1179.0550910150002437, -0.00247749, -0.00344568, -0.00107785, 0.03956, 0.648494, -0.188108
1179.0884073820002413, -0.00248889, -0.00344589, -0.0010788, 0.0394999, 0.648635, -0.187907
1179.1217237150001438, -0.00249749, -0.00344588, -0.00107919, 0.0394553, 0.648729, -0.187772
1179.1550400490000357, -0.00250232, -0.00344692, -0.00107904, 0.0394166, 0.648836, -0.187656
1179.1883563490000597, -0.00251, -0.00344992, -0.00107462, 0.0393805, 0.648955, -0.187557
1179.2216727150000679, -0.00251792, -0.0034491, -0.0010746, 0.0393424, 0.649032, -0.187458
1179.2549895010001819, -0.00252252, -0.00344971, -0.00107228, 0.0393127, 0.649105, -0.187401
1179.2883053820000896, -0.00252423, -0.00345065, -0.00107179, 0.0392808, 0.6492, -0.187319
1179.3216217150002194, -0.00252371, -0.00345211, -0.00107059, 0.0392461, 0.649294, -0.187235
1179.3550880490001873, -0.00252432, -0.00345306, -0.00107095, 0.0392199, 0.649371, -0.187158
1179.3884043820000898, -0.00252248, -0.00345197, -0.00106921, 0.0391565, 0.6495, -0.18701
1179.4217206870000609, -0.00251949, -0.00345174, -0.00106857, 0.0390954, 0.649652, -0.186854
1179.4550370200001908, -0.00251819, -0.00345208, -0.00106767, 0.0390494, 0.649761, -0.186733
1179.4883533820002413, -0.00251777, -0.00345238, -0.00106712, 0.0390109, 0.649839, -0.186629
1179.5216696820000379, -0.00251763, -0.00345406, -0.00106691, 0.0389873, 0.649919, -0.186552
1179.554986891000226, -0.00251863, -0.00345511, -0.00106616, 0.0389595, 0.649996, -0.186464
1179.5883023490000596, -0.00251906, -0.00345479, -0.00106634, 0.0389078, 0.650143, -0.186309
1179.6216186870001366, -0.00252504, -0.00345399, -0.00106579, 0.0388804, 0.650194, -0.186229
1179.6549359060002189, -0.00253384, -0.00345322, -0.0010647, 0.0388477, 0.65023, -0.186136
1179.6884013200001391, -0.0025417, -0.00345048, -0.001064, 0.0387691, 0.650378, -0.185924
1179.7217176870001367, -0.00255362, -0.00344863, -0.00106212, 0.0387372, 0.650409, -0.185832
1179.7550340390000656, -0.0025614, -0.00344877, -0.00106056, 0.038724, 0.650402, -0.1858
1179.7883503490002113, -0.00257166, -0.00344631, -0.00105959, 0.0386677, 0.650468, -0.185654
1179.8216667150002195, -0.00257587, -0.00344668, -0.0010568, 0.03868, 0.650394, -0.185714
1179.8549830200001907, -0.00258061, -0.00344204, -0.00105449, 0.0385259, 0.650697, -0.185369
1179.8882993490001354, -0.00258552, -0.00344068, -0.00105287, 0.038474, 0.650802, -0.185274
1179.9216157150001436, -0.00258621, -0.00344162, -0.00105092, 0.0384588, 0.650868, -0.18527
1179.9549320490000355, -0.00258806, -0.00343866, -0.00104905, 0.0383498, 0.651121, -0.18505
1179.9882483490000595, -0.00259336, -0.00343527, -0.00104827, 0.0383152, 0.651191, -0.184974
1180.0215647150000677, -0.00259928, -0.00342998, -0.00104811, 0.0382401, 0.651343, -0.184784
1180.0550310490000356, -0.00260218, -0.0034264, -0.00104762, 0.0382385, 0.651349, -0.184785
1180.0883473820001655, -0.00260142, -0.00342198, -0.00104621, 0.0381914, 0.651457, -0.184702
1180.1216637150000679, -0.00260195, -0.00341761, -0.00104641, 0.0381849, 0.651459, -0.184676
1180.1549800490001871, -0.00260437, -0.0034126, -0.00104775, 0.03817, 0.651448, -0.184615
1180.1882963820000896, -0.00260669, -0.00340611, -0.00104768, 0.0381209, 0.651504, -0.184483
1180.2216126870000608, -0.00260797, -0.00340082, -0.0010481, 0.038091, 0.651526, -0.184402
1180.2549290010001641, -0.00260691, -0.00339464, -0.00104753, 0.0380547, 0.651567, -0.184332
1180.2882453490001353, -0.00260416, -0.00339099, -0.00104539, 0.0380429, 0.651577, -0.184324
1180.3215617150001435, -0.00260228, -0.00338654, -0.00104439, 0.0380058, 0.651628, -0.184248
1180.3548780150001676, -0.00259836, -0.00338358, -0.00104387, 0.0379921, 0.65164, -0.184219
1180.3883443820002412, -0.00259361, -0.00338064, -0.00104331, 0.0379647, 0.651687, -0.184157
1180.4216607150001437, -0.00259209, -0.00337499, -0.00104337, 0.037912, 0.651772, -0.184016
1180.4549770480000461, -0.00258942, -0.00337327, -0.00104355, 0.0379125, 0.651752, -0.184011
1180.4882933200001389, -0.00258777, -0.00336775, -0.00104475, 0.0378508, 0.651856, -0.18384
1180.5216097150000678, -0.00258887, -0.00336313, -0.00104554, 0.037822, 0.651872, -0.183757
1180.5549260480001976, -0.002591, -0.00335707, -0.00104682, 0.0377825, 0.651915, -0.183648
1180.5882423820000895, -0.00259077, -0.00335266, -0.0010478, 0.0377494, 0.651956, -0.183555
1180.6215587150002193, -0.00259255, -0.00334867, -0.00104877, 0.0377298, 0.651965, -0.183496
1180.6548750480001218, -0.00259479, -0.00334524, -0.0010487, 0.037699, 0.652026, -0.183414
1180.688191382000241, -0.00259567, -0.00334228, -0.0010475, 0.0376642, 0.652074, -0.183341
1180.7216577150002195, -0.00259637, -0.00333938, -0.00104672, 0.0376422, 0.652109, -0.183299
1180.7549740150002435, -0.00259725, -0.00333716, -0.00104643, 0.0376116, 0.652172, -0.183224
1180.788290348000146, -0.00259687, -0.00333701, -0.00104594, 0.0375993, 0.652213, -0.183192
1180.8216067150001436, -0.00259225, -0.00333978, -0.00104451, 0.0376098, 0.652223, -0.183252
1180.854923048000046, -0.0025923, -0.00334154, -0.00104441, 0.0377904, 0.651807, -0.183739
1180.8882393820001653, -0.00258892, -0.00334155, -0.00104517, 0.0379797, 0.651444, -0.184233
1180.9215556870001365, -0.00259078, -0.00334472, -0.00104265, 0.0379497, 0.65154, -0.184238
1180.9548720150000918, -0.00259094, -0.00334324, -0.00103789, 0.0378151, 0.651799, -0.184019
1180.9881883870000365, -0.00259299, -0.00334467, -0.00104207, 0.0379735, 0.651435, -0.184293
1181.0215047150002192, -0.00260255, -0.00333058, -0.00102962, 0.0385419, 0.650063, -0.185518
1181.0548209870000846, -0.00260311, -0.00332906, -0.00102987, 0.0386013, 0.649892, -0.185614
1181.0882873530001689, -0.00260133, -0.00333196, -0.00102761, 0.0386186, 0.649916, -0.185664
1181.1216037150002194, -0.00260259, -0.00333264, -0.00103723, 0.0389524, 0.649195, -0.185763
1181.1549200480001218, -0.00260238, -0.00333364, -0.00104103, 0.0390476, 0.649017, -0.185667
1181.1882363480001459, -0.00260154, -0.00333459, -0.0010385, 0.0391228, 0.648847, -0.185647
1181.2215527150001435, -0.00260184, -0.00333504, -0.0010392, 0.0390738, 0.648904, -0.185757
1181.2548690200001147, -0.00260334, -0.00333407, -0.00104115, 0.0389728, 0.648996, -0.186119
1181.2881853820001652, -0.00260218, -0.00333378, -0.00103807, 0.0389862, 0.648932, -0.186138
1181.3215017150000676, -0.00260177, -0.003333, -0.00103295, 0.0386797, 0.648728, -0.188407
1181.3548180150000917, -0.00260208, -0.00333149, -0.00103443, 0.0383604, 0.64847, -0.190843
1181.3881343820000893, -0.00260156, -0.003332, -0.00103241, 0.0383373, 0.648362, -0.191188
1181.4216006860001471, -0.00260058, -0.00333495, -0.00102904, 0.0384116, 0.648537, -0.190661
1181.4549170290001712, -0.00260004, -0.00333599, -0.00102726, 0.0385304, 0.649069, -0.18945
1181.4882333820000895, -0.00259962, -0.00333658, -0.00103277, 0.0386326, 0.649966, -0.187844
1181.5215497150002193, -0.00259921, -0.00333697, -0.0010389, 0.0386539, 0.650147, -0.187378
1181.5548660150002434, -0.00259872, -0.00333879, -0.00104412, 0.0386447, 0.65017, -0.187345
1181.5881823530000929, -0.00259832, -0.00333825, -0.00104994, 0.0388475, 0.651852, -0.184422
1181.6214987150001434, -0.00259819, -0.00333688, -0.00105373, 0.0389542, 0.652817, -0.1828
1181.6548150580001675, -0.00259798, -0.00333592, -0.00105646, 0.039051, 0.653702, -0.181327
1181.6881313820001651, -0.00259769, -0.00333468, -0.00106103, 0.0391224, 0.654297, -0.180205
1181.7214477150000675, -0.00259771, -0.00333338, -0.0010616, 0.0389627, 0.652642, -0.18267
1181.7547640480001974, -0.0025983, -0.00333192, -0.00106003, 0.0389209, 0.652197, -0.18336
1181.7882303480000701, -0.00259865, -0.00332935, -0.00106172, 0.0390034, 0.652827, -0.181945
1181.8215467150000677, -0.002599, -0.00332922, -0.00106104, 0.0389952, 0.652822, -0.182172
1181.8548630150000918, -0.00259985, -0.00332823, -0.00105848, 0.0391075, 0.653626, -0.180379
1181.8881795100001, -0.00260032, -0.00332702, -0.00105966, 0.0391672, 0.653976, -0.179175
1181.9214956820001134, -0.00259919, -0.00332807, -0.0010643, 0.0391308, 0.653786, -0.179133
1181.9548120480001216, -0.00259931, -0.00332967, -0.00106425, 0.0391779, 0.654244, -0.178464
1181.9881283820002409, -0.0025993, -0.00333176, -0.00106402, 0.0392995, 0.655012, -0.176629
1182.0214447150001433, -0.00259962, -0.00332722, -0.00106703, 0.0394859, 0.654784, -0.17258
1182.0547610480000458, -0.00259989, -0.00332652, -0.00106705, 0.0395897, 0.654938, -0.171045
1182.0880773530002443, -0.00260001, -0.00332706, -0.00106633, 0.0396972, 0.655292, -0.16986
1182.1215437150001435, -0.00260005, -0.00332758, -0.00106653, 0.0398209, 0.655582, -0.168263
1182.1548600150001676, -0.00259874, -0.00332724, -0.00107328, 0.0396564, 0.655072, -0.168303
1182.18817634800007, -0.00259753, -0.00332913, -0.00107696, 0.0394571, 0.655291, -0.169602
1182.2214927150000676, -0.00259676, -0.00333075, -0.00107912, 0.0392901, 0.655625, -0.170887
1182.2548090150000917, -0.00259523, -0.00333278, -0.00108405, 0.0392165, 0.656122, -0.170392
1182.2881253480002215, -0.00259416, -0.00333541, -0.00108781, 0.0393554, 0.656562, -0.168352
1182.3214416820001134, -0.00259332, -0.00333663, -0.00109079, 0.0394401, 0.656636, -0.166733
1182.3547580200001903, -0.00259282, -0.00333646, -0.00109565, 0.0393777, 0.656148, -0.165582
1182.3880743530000927, -0.00259291, -0.00333745, -0.001095, 0.03975, 0.655225, -0.163441
1182.4213906820000375, -0.00259304, -0.00333608, -0.00109639, 0.0399478, 0.653727, -0.161813
1182.4547070480000457, -0.00259328, -0.00333669, -0.00109418, 0.0401101, 0.653497, -0.161708
1182.488173382000241, -0.00259337, -0.00333706, -0.00109337, 0.0402284, 0.653254, -0.161465
1182.5214896820000376, -0.00259262, -0.00333627, -0.00109869, 0.0403348, 0.652081, -0.1591
1182.5548060200001146, -0.00259287, -0.00333578, -0.00109792, 0.0404708, 0.651201, -0.158699
1182.5881223820001651, -0.00259461, -0.00333228, -0.0010941, 0.0406967, 0.648231, -0.15885
1182.6214387150000675, -0.00259637, -0.00333071, -0.00108786, 0.04105, 0.646241, -0.159695
1182.6547550480001973, -0.00259655, -0.00332888, -0.00108902, 0.0411021, 0.644602, -0.158619
1182.6880713820000892, -0.00259602, -0.00332708, -0.00109352, 0.0409947, 0.643305, -0.156713
1182.7213876810001238, -0.00259489, -0.00332455, -0.00110063, 0.0408604, 0.641249, -0.153392
1182.7547040200001902, -0.00259447, -0.00332078, -0.00110592, 0.0406812, 0.638333, -0.150955
1182.7880203810002513, -0.00259474, -0.00331748, -0.00110782, 0.0406632, 0.635296, -0.148796
1182.821486681000124, -0.00259654, -0.00330834, -0.00110772, 0.0405268, 0.627021, -0.146273
1182.8548030480001216, -0.00259768, -0.00330261, -0.00110758, 0.0403622, 0.621861, -0.145212
1182.8881193480001457, -0.00259757, -0.00329879, -0.00111148, 0.0402164, 0.617919, -0.141577
1182.9214357150001433, -0.00259653, -0.0032967, -0.00111754, 0.0400453, 0.615746, -0.137426
1182.9547520150001674, -0.00259601, -0.00329527, -0.00112064, 0.0398997, 0.614571, -0.13598
1182.9880683530002443, -0.00259625, -0.00329316, -0.00112201, 0.0397675, 0.612393, -0.134758
1183.021384653000041, -0.00259673, -0.00329158, -0.00112296, 0.0396816, 0.61086, -0.133917
1183.0547010480001973, -0.00259613, -0.00328936, -0.00112718, 0.0394653, 0.608369, -0.131197
1183.0880173530001684, -0.00259631, -0.00328469, -0.00113121, 0.0391412, 0.602354, -0.12654
1183.1213336530001925, -0.00259643, -0.00328355, -0.00113204, 0.0390432, 0.601029, -0.125947
1183.1546500480001214, -0.00259757, -0.00327983, -0.00113235, 0.0387999, 0.59597, -0.124427
1183.1881163530001686, -0.00259735, -0.00327853, -0.00113574, 0.038626, 0.593751, -0.120201
1183.2214327150002191, -0.00259875, -0.00327389, -0.00113605, 0.0382698, 0.586595, -0.118217
1183.2547490150002432, -0.00259916, -0.00327163, -0.0011373, 0.0380694, 0.582824, -0.115733
1183.2880653810002514, -0.0025995, -0.00327024, -0.00113811, 0.037929, 0.580311, -0.114335
1183.3213816860002225, -0.00259966, -0.00326985, -0.00113928, 0.0378624, 0.578808, -0.112086
1183.3546980480000457, -0.00259907, -0.00327018, -0.00114167, 0.0378638, 0.578769, -0.10753
1183.3880143530002442, -0.00260158, -0.00326227, -0.0011422, 0.037103, 0.564229, -0.103262
1183.4213307190002524, -0.00260224, -0.0032586, -0.00114455, 0.0366771, 0.557396, -0.0994015
1183.4546469910001179, -0.00260245, -0.00325692, -0.001147, 0.0364503, 0.553752, -0.0950065
1183.4879633480002212, -0.00260232, -0.00325808, -0.00114733, 0.0366341, 0.554896, -0.0935735
1183.5214297150000675, -0.00260199, -0.00325804, -0.00114778, 0.0367314, 0.553868, -0.0907421
1183.5547460150000916, -0.00260267, -0.00325539, -0.00114844, 0.0364916, 0.546622, -0.0870795
1183.5880623480002214, -0.00260273, -0.00325417, -0.00115011, 0.0364346, 0.542555, -0.0822725
1183.621378686000071, -0.00260253, -0.003253, -0.00115129, 0.0364673, 0.540184, -0.0776163
1183.6546950430001743, -0.00260224, -0.00325284, -0.00115276, 0.0365319, 0.538579, -0.0740012
1183.6880113810002513, -0.00260243, -0.00325254, -0.00115174, 0.0367152, 0.53751, -0.073111
1183.7213277150001431, -0.00260263, -0.00325266, -0.0011505, 0.0368899, 0.538139, -0.0735459
1183.7546440190001249, -0.00260367, -0.00324861, -0.0011491, 0.037064, 0.528135, -0.06773
1183.7879603530002441, -0.00260432, -0.00324655, -0.00114843, 0.0369722, 0.522902, -0.066177
1183.8212767240001995, -0.0026038, -0.00324559, -0.00115119, 0.0369794, 0.521186, -0.0605928
1183.8547430150001674, -0.0026041, -0.00324377, -0.00115207, 0.0370152, 0.516321, -0.0566773
1183.8880593670000962, -0.00260466, -0.00324243, -0.00115071, 0.037021, 0.512997, -0.0568824
1183.9213757100001203, -0.00260371, -0.00324326, -0.00115292, 0.0371149, 0.515567, -0.0539189
1183.9546920190000492, -0.00260241, -0.0032455, -0.00115601, 0.0372487, 0.521415, -0.0508931
1183.9880083530001684, -0.00260208, -0.00324365, -0.00115732, 0.0366623, 0.513595, -0.051626
1184.0213247150002189, -0.0026006, -0.00324473, -0.00116074, 0.0365411, 0.516268, -0.0491819
1184.054641015000243, -0.0025999, -0.00324619, -0.00116218, 0.0366382, 0.520403, -0.0483798
1184.0879573480001454, -0.00259954, -0.00324604, -0.00116335, 0.0365458, 0.519715, -0.0474051
1184.1212736530001166, -0.00259547, -0.00324541, -0.00117751, 0.0354849, 0.51361, -0.0352002
1184.1545900480000455, -0.00259563, -0.003243, -0.00117875, 0.0349321, 0.505813, -0.0346707
1184.1879063810001753, -0.00259477, -0.00324257, -0.0011825, 0.0346254, 0.503018, -0.0315649
1184.2213727150001432, -0.00259477, -0.003242, -0.001183, 0.0345413, 0.500684, -0.0306318
1184.2546890150001673, -0.00259297, -0.00324363, -0.00118765, 0.034616, 0.502673, -0.0248393
1184.2880053810001755, -0.00259126, -0.00324479, -0.00119342, 0.0345881, 0.504414, -0.0189363
1184.3213216810001995, -0.00259155, -0.00324369, -0.00119393, 0.0344352, 0.501195, -0.0182374
1184.3546379910001178, -0.00259129, -0.00324275, -0.00119635, 0.0342297, 0.497639, -0.015677
1184.3879543530001683, -0.00258994, -0.00324163, -0.0012045, 0.0337915, 0.492396, -0.00863984
1184.4212706860000708, -0.00258826, -0.00323938, -0.00121288, 0.0332124, 0.483036, -0.000914382
1184.4545870190002006, -0.00258858, -0.00323603, -0.00121556, 0.0328316, 0.47307, 0.00184449
1184.4879033530000925, -0.00258667, -0.00323693, -0.00122244, 0.0329128, 0.472729, 0.0103937
1184.521219715000143, -0.00258498, -0.00323625, -0.00122911, 0.0331239, 0.470606, 0.0193975
1184.5546860150002431, -0.00258657, -0.00323407, -0.0012258, 0.0332429, 0.466267, 0.0178296
1184.5880023190002248, -0.00258638, -0.00323444, -0.00122764, 0.0330853, 0.465507, 0.018365
1184.6213187150001431, -0.00258665, -0.00323434, -0.00122731, 0.0331593, 0.465336, 0.0185709
1184.6546350480000456, -0.00258608, -0.00323179, -0.00123397, 0.0327063, 0.455829, 0.0231668
1184.6879513810001754, -0.00258601, -0.00322872, -0.0012362, 0.0324042, 0.446197, 0.0244175
1184.7212676810001994, -0.0025859, -0.0032274, -0.00123888, 0.0322039, 0.441458, 0.0263133
1184.7545840150000913, -0.00258602, -0.0032257, -0.00124105, 0.0319346, 0.43604, 0.0272194
1184.7879003810000995, -0.00258587, -0.00322451, -0.0012433, 0.0316709, 0.431813, 0.0281812
1184.8212166760001764, -0.00258558, -0.00322366, -0.00124641, 0.0314065, 0.428227, 0.0296543
1184.8545330150002428, -0.00258538, -0.00322191, -0.0012497, 0.0311797, 0.421657, 0.031686
1184.8878493530000924, -0.00258488, -0.00321808, -0.00125198, 0.0309052, 0.409997, 0.0334293
1184.9213156810001237, -0.00258431, -0.00321686, -0.00125434, 0.0307335, 0.404602, 0.0356026
1184.9546320190002007, -0.00258444, -0.00321726, -0.00125373, 0.0309645, 0.405875, 0.035999
1184.9879483810002512, -0.00258348, -0.00321854, -0.00125604, 0.0308027, 0.408557, 0.0365163
1185.0212647140001536, -0.0025814, -0.00321935, -0.00126261, 0.0304262, 0.409266, 0.0401007
1185.0545810480000455, -0.00258125, -0.00321942, -0.00126312, 0.0304063, 0.409294, 0.0404395
1185.0878973480000695, -0.00258061, -0.00322033, -0.00126468, 0.0303054, 0.412018, 0.0405416
1185.1212137140000777, -0.00258019, -0.00322082, -0.00126542, 0.0302572, 0.415658, 0.0399933
1185.154530048000197, -0.00258023, -0.00321844, -0.00126752, 0.0297179, 0.407521, 0.0401186
1185.1878463530001682, -0.00258004, -0.00321831, -0.00126874, 0.0296131, 0.406923, 0.0406966
1185.2211627140002292, -0.00257999, -0.00321794, -0.00127002, 0.0294619, 0.406401, 0.0407879
1185.2546290190000491, -0.00258089, -0.00321598, -0.0012701, 0.0292132, 0.399285, 0.0413075
1185.2879453480002212, -0.00258117, -0.00321585, -0.00126983, 0.0293496, 0.398613, 0.0425449
1185.3212617140002294, -0.00258147, -0.0032155, -0.0012711, 0.0291639, 0.397342, 0.0426795
1185.3545780480001213, -0.00258096, -0.00321575, -0.00127233, 0.029116, 0.396304, 0.0444003
1185.3878943530000925, -0.00258044, -0.0032165, -0.00127328, 0.0292535, 0.398758, 0.0458674
1185.4212107140001535, -0.00258017, -0.00321674, -0.00127408, 0.0292402, 0.399556, 0.04656
1185.4545270140001776, -0.00257939, -0.00321804, -0.00127588, 0.0294411, 0.402835, 0.0494324
1185.4878433810001752, -0.0025788, -0.00321895, -0.0012776, 0.029605, 0.406205, 0.0511453
1185.5211596530000406, -0.00257833, -0.00321973, -0.00127949, 0.0297278, 0.409395, 0.0532543
1185.5544760140001017, -0.00257763, -0.00322053, -0.00128209, 0.0298711, 0.41175, 0.0564101
1185.5877923810000993, -0.00257703, -0.0032211, -0.00128402, 0.0299897, 0.413192, 0.0584249
1185.6212586860001466, -0.00257709, -0.00322081, -0.00128438, 0.0298979, 0.409987, 0.0590395
1185.6545755860001918, -0.00257697, -0.00322056, -0.00128559, 0.0300659, 0.40895, 0.0601834
1185.6878913810000995, -0.00257669, -0.00322079, -0.00128658, 0.0301481, 0.409694, 0.0611167
1185.7212076810001236, -0.00257587, -0.00322153, -0.00128946, 0.030384, 0.411649, 0.0646107
1185.7545240190002005, -0.00257581, -0.00322129, -0.00128956, 0.0308979, 0.413603, 0.0629696
1185.787840381000251, -0.00257557, -0.00322141, -0.00128942, 0.0310671, 0.415862, 0.0625238
1185.8211567140001534, -0.00257538, -0.00322141, -0.00129012, 0.0311686, 0.416061, 0.0629703
1185.8544729910001934, -0.00257535, -0.00322164, -0.00129096, 0.0309003, 0.413919, 0.0647575
1185.8877893520002544, -0.00257524, -0.00322147, -0.00129147, 0.0308834, 0.412694, 0.065382
1185.9211057140000776, -0.00257492, -0.00322137, -0.00129213, 0.031154, 0.414866, 0.0652944
1185.9545719910001935, -0.00257522, -0.00322058, -0.00129155, 0.0313113, 0.413849, 0.063674
1185.9878883520002546, -0.00257532, -0.00322005, -0.00129113, 0.0316282, 0.415522, 0.0618089
1186.0212047140000777, -0.00257513, -0.00321994, -0.00129169, 0.0318049, 0.416962, 0.0618096
1186.054521338000086, -0.00257517, -0.00321943, -0.00129072, 0.0322461, 0.419664, 0.0595471
1186.0878373520001787, -0.00257486, -0.00321925, -0.00129216, 0.032303, 0.419779, 0.0610815
1186.1211537140002292, -0.00257468, -0.00321911, -0.00129289, 0.0323704, 0.420036, 0.0618227
1186.1544700620002004, -0.00257468, -0.00321886, -0.00129275, 0.0325094, 0.4206, 0.0615446
1186.1877863810002509, -0.00257354, -0.00321983, -0.00129796, 0.0322059, 0.424511, 0.0688347
1186.2211026860002221, -0.002573, -0.00322007, -0.00129955, 0.0322892, 0.426833, 0.0706841
1186.2544190190001245, -0.00257184, -0.0032211, -0.00130198, 0.0321491, 0.429287, 0.0741535
1186.2877353520002544, -0.00257341, -0.00321936, -0.00130031, 0.0324909, 0.434138, 0.0726218
1186.3212017140001535, -0.00257356, -0.00321946, -0.00129954, 0.0325679, 0.436838, 0.0719248
1186.3545180480000454, -0.00257366, -0.00321987, -0.00129912, 0.032595, 0.440226, 0.0717913
1186.3878343810001752, -0.00257321, -0.00322129, -0.00130095, 0.0319266, 0.434074, 0.0711796
1186.4211507140000776, -0.00257303, -0.00322217, -0.00130339, 0.0315228, 0.431448, 0.0721474
1186.4544670190000488, -0.00257297, -0.0032223, -0.00130446, 0.0314298, 0.432534, 0.072902
1186.4877833810000993, -0.00257319, -0.00322241, -0.00130467, 0.0314946, 0.433309, 0.0741989
1186.5210997140002291, -0.00257331, -0.00322204, -0.00130527, 0.0313661, 0.43217, 0.0738511
1186.554416048000121, -0.00257324, -0.00322231, -0.00130716, 0.0312278, 0.433255, 0.0752257
1186.5877323810002508, -0.00257312, -0.00322267, -0.0013084, 0.031389, 0.436999, 0.0778893
1186.621048686000222, -0.00257319, -0.00322318, -0.00130929, 0.031495, 0.439386, 0.0805941
1186.6545150140002534, -0.00257331, -0.00322303, -0.00130915, 0.0314935, 0.438492, 0.08059
1186.6878313520001029, -0.00257327, -0.00322332, -0.00131016, 0.0315488, 0.439879, 0.0823858
1186.7211477140001534, -0.00257329, -0.00322387, -0.00131213, 0.0315968, 0.441404, 0.0852534
1186.7544640190001246, -0.00257335, -0.00322424, -0.00131374, 0.0315339, 0.442434, 0.0870474
1186.7877803520002544, -0.00257323, -0.00322455, -0.00131448, 0.0315037, 0.443911, 0.0881744
1186.8210966860001463, -0.00257336, -0.00322462, -0.00131495, 0.0314665, 0.444019, 0.0886899
1186.8544130140001016, -0.00257324, -0.00322491, -0.00131636, 0.0315493, 0.443852, 0.0897754
1186.8877293810000992, -0.00257328, -0.00322482, -0.00131756, 0.0317628, 0.44504, 0.0916051
1186.9210456860000704, -0.00257319, -0.0032247, -0.0013184, 0.0319667, 0.4463, 0.0930652
1186.9543620480001209, -0.00257321, -0.00322456, -0.0013187, 0.0320391, 0.446232, 0.0931325
1186.987828348000221, -0.0025731, -0.0032243, -0.00132116, 0.0323556, 0.44659, 0.0953541
1187.0211447140002292, -0.00257277, -0.00322445, -0.00132458, 0.0324954, 0.446558, 0.098313
1187.0544610280001052, -0.00257268, -0.00322446, -0.00132666, 0.0325281, 0.4452, 0.0997447
1187.0877773810002509, -0.00257256, -0.00322419, -0.00132827, 0.0327541, 0.445696, 0.100629
1187.1210937140001533, -0.00257243, -0.00322437, -0.00132998, 0.0329228, 0.447457, 0.102184
1187.1544100480000452, -0.00257236, -0.00322445, -0.00133016, 0.0329628, 0.448196, 0.102525
1187.1877263470000798, -0.00257242, -0.00322457, -0.00133136, 0.0329141, 0.447104, 0.103463
1187.2210427140000775, -0.0025727, -0.00322385, -0.00133154, 0.0331467, 0.448436, 0.103168
1187.2543590470002073, -0.00257248, -0.00322362, -0.00133319, 0.0334835, 0.450707, 0.104404
1187.2876753810000992, -0.00257223, -0.00322308, -0.00133395, 0.033875, 0.452003, 0.104313
1187.3209916810001232, -0.00257228, -0.00322315, -0.00133357, 0.0339689, 0.453537, 0.10398
1187.3544580470002074, -0.00257223, -0.00322327, -0.00133353, 0.0339986, 0.454536, 0.104102
1187.3877743470002315, -0.00257206, -0.00322419, -0.00133362, 0.0339889, 0.457929, 0.105461
1187.4210906860000705, -0.00257206, -0.00322445, -0.0013338, 0.033935, 0.458732, 0.106036
1187.4544070470001316, -0.0025717, -0.00322492, -0.00133548, 0.0339557, 0.46062, 0.107814
1187.4877233810002508, -0.00257156, -0.00322546, -0.00133474, 0.0337394, 0.462155, 0.1085
1187.5210397140001533, -0.00257159, -0.00322569, -0.00133409, 0.0337038, 0.463828, 0.108631
1187.5543560470000557, -0.00257149, -0.00322587, -0.00133502, 0.0335942, 0.464204, 0.109574
1187.5876723810001749, -0.00257114, -0.00322642, -0.00133533, 0.0334135, 0.46618, 0.11074
1187.6209887140000774, -0.002571, -0.00322661, -0.00133497, 0.0333193, 0.466937, 0.110467
1187.6543050470002072, -0.00257105, -0.00322653, -0.00133448, 0.0333992, 0.468079, 0.110099
1187.6877713810001751, -0.00257085, -0.00322664, -0.00133549, 0.0332505, 0.469028, 0.111305
1187.7210876860001463, -0.00257079, -0.0032267, -0.00133618, 0.0332426, 0.46919, 0.112374
1187.7544040810000752, -0.00257076, -0.00322642, -0.00133625, 0.0333708, 0.469902, 0.112943
1187.7877203810000992, -0.00257073, -0.00322629, -0.00133706, 0.0333652, 0.468713, 0.113824
1187.821036714000229, -0.00257058, -0.00322637, -0.00133799, 0.0333832, 0.469666, 0.115352
1187.8543530190002002, -0.00257039, -0.00322607, -0.00133697, 0.0334786, 0.472139, 0.11487
1187.8876693810002507, -0.00257022, -0.00322595, -0.00133322, 0.0332738, 0.468882, 0.11009
1187.9209856850002325, -0.00257005, -0.00322582, -0.00133329, 0.0333135, 0.470176, 0.110446
1187.9543020190001243, -0.00256962, -0.0032261, -0.00133511, 0.033353, 0.471875, 0.112612
1187.9876195430001644, -0.00256941, -0.00322661, -0.00133682, 0.0333306, 0.472593, 0.114374
1188.0209347140000773, -0.00256926, -0.00322667, -0.00133759, 0.0334207, 0.473273, 0.115334
1188.0544016520002515, -0.00256902, -0.00322711, -0.0013391, 0.0335098, 0.474458, 0.116617
1188.0877176190001592, -0.0025687, -0.00322777, -0.00134095, 0.0335483, 0.476063, 0.118368
1188.1210337140000775, -0.00256757, -0.00322946, -0.00134451, 0.0336741, 0.479667, 0.123191
1188.1543500470002073, -0.00256691, -0.00322975, -0.00134589, 0.0337884, 0.480317, 0.124689
1188.1876663810000991, -0.00256671, -0.00322992, -0.0013463, 0.0339074, 0.480786, 0.124573
1188.220982714000229, -0.00256633, -0.00322991, -0.00134686, 0.0340775, 0.482367, 0.124693
1188.2542990470001314, -0.00256616, -0.00322979, -0.00134699, 0.0342, 0.482937, 0.1243
1188.2876153900001555, -0.00256639, -0.00322981, -0.0013478, 0.0342426, 0.482913, 0.125447
1188.3209316810000473, -0.00256544, -0.00323005, -0.00134858, 0.0345579, 0.484805, 0.124447
1188.3542480190001243, -0.00256513, -0.00322998, -0.00134961, 0.0346979, 0.487079, 0.125379
1188.3877143520001027, -0.0025648, -0.00322992, -0.00135213, 0.0349875, 0.490762, 0.127903
1188.4210306810000475, -0.0025647, -0.00322978, -0.00135397, 0.0350321, 0.49139, 0.130416
1188.4543470140001773, -0.00256453, -0.00322982, -0.00135442, 0.0350945, 0.492587, 0.130738
1188.4876633470000797, -0.00256407, -0.00322972, -0.00135508, 0.0353387, 0.496366, 0.13092
1188.5209797140000774, -0.00256399, -0.00322928, -0.00135641, 0.0356422, 0.500821, 0.131869
1188.5542960140001014, -0.00256381, -0.00322946, -0.00135611, 0.0356184, 0.501019, 0.131685
1188.587612381000099, -0.00256302, -0.00322899, -0.0013561, 0.036006, 0.502095, 0.1294
1188.6209286810001231, -0.00256316, -0.00322859, -0.00135575, 0.0362873, 0.507185, 0.12907
1188.6542450470001313, -0.00256307, -0.00322852, -0.00135602, 0.0362962, 0.507972, 0.129845
1188.6875613230001818, -0.0025629, -0.00322832, -0.00135506, 0.0362648, 0.510022, 0.130062
1188.7208776850002323, -0.00256258, -0.00322805, -0.00135413, 0.0362041, 0.512184, 0.130344
1188.7543440470001315, -0.00256232, -0.00322799, -0.00135384, 0.0361328, 0.512578, 0.130112
1188.7876603470001555, -0.00256234, -0.00322786, -0.00135429, 0.0360119, 0.513293, 0.131349
1188.8209766850002325, -0.00256214, -0.00322803, -0.00135465, 0.0357515, 0.514008, 0.132148
1188.8542930140001772, -0.00256211, -0.00322795, -0.0013554, 0.0354802, 0.514179, 0.133243
1188.8876093810001748, -0.00256213, -0.0032276, -0.00135533, 0.0353586, 0.514939, 0.133412
1188.9209256570002253, -0.00256215, -0.0032272, -0.00135581, 0.0351938, 0.51563, 0.133977
1188.9542420470002071, -0.00256196, -0.00322734, -0.00135537, 0.0351907, 0.514897, 0.133581
1188.987558381000099, -0.00256174, -0.00322727, -0.00135486, 0.0353059, 0.516572, 0.133608
1189.0208784040000864, -0.00256165, -0.00322702, -0.00135456, 0.0353305, 0.518167, 0.133756
1189.0542047750002439, -0.00256159, -0.00322685, -0.00135451, 0.0354996, 0.519312, 0.134128
1189.0876810070001284, -0.00256164, -0.00322664, -0.0013547, 0.0355555, 0.520496, 0.134621
1189.1210071360001166, -0.00256176, -0.00322648, -0.00135459, 0.0355252, 0.521727, 0.13521
1189.154333736000126, -0.00256205, -0.00322661, -0.00135485, 0.0354444, 0.521753, 0.136739
1189.1876594920001935, -0.00256253, -0.00322666, -0.00135483, 0.0353969, 0.52291, 0.138384
1189.2209856540000601, -0.00256271, -0.00322635, -0.00135519, 0.0354412, 0.5243, 0.139254
1189.2543118160001541, -0.00256276, -0.0032262, -0.00135532, 0.035462, 0.524686, 0.139454
1189.2876379770002586, -0.00256291, -0.00322606, -0.00135589, 0.0355536, 0.525292, 0.140584
1189.3209641060002468, -0.00256279, -0.00322578, -0.00135674, 0.0357974, 0.525935, 0.140373
1189.3542903010002192, -0.00256272, -0.00322514, -0.00135755, 0.0361865, 0.526404, 0.141203
1189.3876164190000964, -0.00256283, -0.00322423, -0.00135789, 0.0364806, 0.528182, 0.141609
1189.4209425620001639, -0.00256282, -0.0032239, -0.00135803, 0.0365771, 0.529087, 0.1414
1189.4544188300001224, -0.00256304, -0.00322444, -0.00135697, 0.0363093, 0.527976, 0.142583
1189.4877449580001212, -0.00256302, -0.00322385, -0.00135805, 0.0364923, 0.529855, 0.143149
1189.5210710910000671, -0.00256408, -0.0032221, -0.00135914, 0.0367292, 0.532844, 0.144224
1189.5543973150001875, -0.00256419, -0.0032218, -0.0013597, 0.0368657, 0.532712, 0.144864
1189.5877234430001863, -0.00256408, -0.0032214, -0.00136041, 0.0370681, 0.533691, 0.14451
1189.6210495860002538, -0.00256403, -0.00322099, -0.00136105, 0.0373025, 0.534174, 0.143865
1189.6543758000002526, -0.002564, -0.00322072, -0.00136129, 0.0374313, 0.53477, 0.143548
1189.6877019610001298, -0.00256394, -0.00322016, -0.00136137, 0.0376536, 0.537503, 0.142784
1189.7210281230002238, -0.00256399, -0.00321991, -0.00136158, 0.0377476, 0.538375, 0.142643
1189.7543542510002226, -0.00256424, -0.00321939, -0.00136186, 0.0378541, 0.539987, 0.14335
1189.7876804180000363, -0.00256422, -0.00321888, -0.0013615, 0.0379632, 0.54282, 0.143635
1189.8211565900001006, -0.00256429, -0.00321869, -0.00136138, 0.0379428, 0.543886, 0.144184
1189.8544829660002051, -0.00256442, -0.00321892, -0.00136092, 0.0378215, 0.544043, 0.14494
1189.8878089750000981, -0.00256483, -0.0032184, -0.00135892, 0.0376429, 0.546511, 0.146386
1189.9211351080000441, -0.00256556, -0.00321724, -0.00135728, 0.0373271, 0.550437, 0.149585
1189.954461270000138, -0.00256591, -0.00321644, -0.00135664, 0.0372126, 0.551023, 0.150563
1189.987787432000232, -0.00256623, -0.00321594, -0.00135625, 0.0370742, 0.552682, 0.151691
1190.0211100200001511, -0.00256636, -0.0032157, -0.001356, 0.0369712, 0.553553, 0.152164
1190.0544260180001856, -0.00256668, -0.00321549, -0.00135607, 0.0367905, 0.554231, 0.153346
1190.0877423520000775, -0.0025668, -0.00321513, -0.0013558, 0.036643, 0.554857, 0.153675
1190.1212086570001247, -0.00256691, -0.00321498, -0.00135589, 0.036515, 0.555016, 0.154228
1190.1545250470001065, -0.002567, -0.00321449, -0.00135538, 0.0364593, 0.556186, 0.154042
1190.1878413520000777, -0.00256723, -0.00321368, -0.00135434, 0.0363051, 0.55777, 0.153992
1190.2211581180001758, -0.00256677, -0.0032143, -0.00135426, 0.0361845, 0.555899, 0.152073
1190.2544740180001099, -0.0025666, -0.00321471, -0.00135456, 0.0361182, 0.55415, 0.15176
1190.2877903800001604, -0.00256695, -0.00321417, -0.00135525, 0.0362642, 0.555781, 0.152884
1190.3211067380002532, -0.00256704, -0.00321414, -0.00135558, 0.0361851, 0.556145, 0.153833
1190.3544230140000764, -0.00256705, -0.0032141, -0.00135618, 0.0363212, 0.556508, 0.154434
1190.3877393850000317, -0.00256707, -0.0032146, -0.00135738, 0.0364337, 0.556317, 0.155269
1190.4210556800001086, -0.00256632, -0.00321593, -0.0013591, 0.0366324, 0.557444, 0.156422
1190.4543719850000798, -0.00256621, -0.00321559, -0.00136013, 0.0368801, 0.558348, 0.156499
1190.4878383800000847, -0.0025661, -0.0032154, -0.00136151, 0.0370976, 0.559069, 0.157334
1190.521154714000204, -0.00256628, -0.00321456, -0.00136282, 0.0373526, 0.561087, 0.158835
1190.5544718180001382, -0.00256652, -0.00321371, -0.00136395, 0.0375743, 0.56295, 0.159955
1190.5877873800002362, -0.00256631, -0.00321251, -0.00136686, 0.0379962, 0.564184, 0.16078
1190.6211037140001281, -0.00256616, -0.00321239, -0.00136728, 0.0381017, 0.56458, 0.160861
1190.6544200140001522, -0.00256524, -0.00321236, -0.00136994, 0.0385835, 0.565528, 0.160672
1190.6877363470000546, -0.0025645, -0.00321151, -0.00137197, 0.0390365, 0.568561, 0.160027
1190.7210526800001844, -0.0025644, -0.00321142, -0.00137259, 0.0391883, 0.568859, 0.159995
1190.754369047000182, -0.00256439, -0.00321152, -0.00137292, 0.0392141, 0.568653, 0.160243
1190.7876853800000845, -0.00256416, -0.00321116, -0.00137335, 0.0393088, 0.569832, 0.160618
1190.8211517140000524, -0.00256438, -0.00321093, -0.00137407, 0.0393391, 0.570448, 0.162193
1190.8544680140000764, -0.00256437, -0.00321083, -0.00137377, 0.0393325, 0.571003, 0.162614
1190.8877843520001534, -0.00256428, -0.0032103, -0.00137386, 0.0394001, 0.572264, 0.162819
1190.9211007140002039, -0.0025646, -0.00320942, -0.00137389, 0.039388, 0.574248, 0.164402
1190.9544170470001063, -0.00256456, -0.00320878, -0.00137384, 0.0393051, 0.576033, 0.166366
1190.9877333520000775, -0.00256434, -0.00320874, -0.00137411, 0.0393966, 0.577336, 0.167582
1191.0210496800000328, -0.00256449, -0.00320862, -0.00137378, 0.0392502, 0.577839, 0.168244
1191.0543660180001098, -0.00256459, -0.00320866, -0.00137282, 0.0390333, 0.578436, 0.168775
1191.0876823800001603, -0.00256453, -0.00320837, -0.00137213, 0.0389653, 0.579212, 0.168013
1191.1209986800001843, -0.00256471, -0.0032081, -0.00137167, 0.0388662, 0.57982, 0.168384
1191.1543149850001555, -0.00256496, -0.00320794, -0.00137095, 0.0386355, 0.580172, 0.169286
1191.1877813800001604, -0.00256427, -0.00320882, -0.00137129, 0.0383643, 0.57826, 0.169938
1191.2210977140000523, -0.00256358, -0.00320979, -0.00137157, 0.0380452, 0.577063, 0.170451
1191.2544140470001821, -0.00256339, -0.00321057, -0.0013716, 0.0375561, 0.5768, 0.173317
1191.2877303470002062, -0.00256352, -0.00321069, -0.00137164, 0.0374048, 0.576569, 0.174508
1191.3210467140002038, -0.00256349, -0.00321058, -0.00137175, 0.0374409, 0.57647, 0.174299
1191.3543629850000798, -0.00256369, -0.00321073, -0.00137244, 0.0375589, 0.577281, 0.17544
1191.3876793800002361, -0.00256372, -0.00321049, -0.00137306, 0.0376615, 0.578387, 0.176203
1191.4209957140001279, -0.00256371, -0.00321033, -0.00137326, 0.0376985, 0.57868, 0.176427
1191.4543120470002577, -0.00256378, -0.00321063, -0.00137386, 0.0377856, 0.578526, 0.177014
1191.4876283800001602, -0.00256388, -0.00321108, -0.00137407, 0.037794, 0.57785, 0.177118
1191.5210947140001281, -0.00256359, -0.00321217, -0.00137511, 0.0379441, 0.576235, 0.177089
1191.5544110180001098, -0.00256355, -0.00321231, -0.00137537, 0.0380009, 0.576245, 0.177096
1191.5877273470000546, -0.00256358, -0.00321207, -0.00137539, 0.0380865, 0.576916, 0.177323
1191.6210436800001844, -0.00256353, -0.00321169, -0.00137534, 0.0382981, 0.578144, 0.177059
1191.6543600130000868, -0.00256314, -0.00321216, -0.00137676, 0.0386677, 0.577769, 0.176729
1191.6876763470002061, -0.00256322, -0.00321186, -0.00137729, 0.0388784, 0.578764, 0.176719
1191.7209927130002143, -0.00256329, -0.00321136, -0.00137744, 0.0391255, 0.580561, 0.176736
1191.7543090470001061, -0.00256369, -0.00321152, -0.00137759, 0.0391053, 0.580534, 0.177825
1191.787625380000236, -0.00256359, -0.00321167, -0.00137727, 0.0390843, 0.580732, 0.177938
1191.8209416850002071, -0.00256339, -0.00321154, -0.00137729, 0.0391937, 0.581543, 0.177906
1191.8542580180001096, -0.00256318, -0.00321116, -0.0013771, 0.0392698, 0.582725, 0.178137
1191.8877243800002361, -0.00256375, -0.00321148, -0.00137731, 0.0392441, 0.581612, 0.178199
1191.9210406850002073, -0.0025638, -0.00321069, -0.0013765, 0.0394037, 0.583374, 0.176861
1191.9543570130001626, -0.00256351, -0.00321033, -0.00137801, 0.0399956, 0.583837, 0.176292
1191.987673352000229, -0.00256299, -0.00321076, -0.00137963, 0.0401977, 0.583431, 0.175576
1192.0209897130000627, -0.00256342, -0.00321032, -0.00137882, 0.0400843, 0.584697, 0.176154
1192.0543060470001819, -0.0025636, -0.00321035, -0.00137881, 0.0400663, 0.584606, 0.176627
1192.0876223520001531, -0.00256407, -0.00320985, -0.00137822, 0.0399247, 0.584575, 0.177031
1192.1209386800001084, -0.00256427, -0.00320955, -0.0013779, 0.0397677, 0.584764, 0.177452
1192.1542550320000373, -0.00256464, -0.00320897, -0.00137727, 0.0396016, 0.585287, 0.178067
1192.1875713800002359, -0.00256505, -0.003208, -0.00137611, 0.0395124, 0.586844, 0.178579
1192.2210376850000557, -0.00256518, -0.00320757, -0.00137585, 0.0394161, 0.58756, 0.178897
1192.2543540180001855, -0.0025653, -0.00320742, -0.0013759, 0.039238, 0.587596, 0.180083
1192.2876703470001303, -0.00256516, -0.00320746, -0.00137623, 0.0389543, 0.587733, 0.180267
1192.3209866800000327, -0.00256526, -0.00320718, -0.00137638, 0.0388093, 0.587885, 0.180885
1192.3543030470002577, -0.00256518, -0.00320691, -0.00137689, 0.0385975, 0.58752, 0.18142
1192.3876193800001602, -0.00256549, -0.00320645, -0.00137691, 0.0384675, 0.588457, 0.182675
1192.4209356800001842, -0.00256607, -0.00320655, -0.00137695, 0.038414, 0.588796, 0.184304
1192.4542520130000867, -0.0025663, -0.00320657, -0.00137687, 0.0382896, 0.588832, 0.185501
1192.4875683470002059, -0.00256644, -0.00320693, -0.0013767, 0.0381779, 0.588784, 0.187255
1192.5208847130002141, -0.00256678, -0.00320657, -0.00137652, 0.0381192, 0.589191, 0.187962
1192.5542010130002382, -0.00256689, -0.00320623, -0.00137637, 0.0381057, 0.590036, 0.188677
1192.5876673800000844, -0.00256728, -0.00320648, -0.00137623, 0.0380431, 0.590176, 0.1903
1192.6209837130002143, -0.00256746, -0.00320687, -0.00137622, 0.038078, 0.590177, 0.190723
1192.6543000470001061, -0.00256805, -0.00320659, -0.00137604, 0.0380915, 0.591011, 0.192077
1192.6876163470001302, -0.00256821, -0.00320644, -0.00137604, 0.0380384, 0.591375, 0.192936
1192.7209327130001384, -0.0025681, -0.00320723, -0.00137674, 0.038175, 0.591303, 0.193054
1192.7542490470002576, -0.00256867, -0.00320782, -0.00137651, 0.0381081, 0.591957, 0.19485
1192.7875653470000543, -0.00256755, -0.00320805, -0.00137736, 0.0383343, 0.59137, 0.194863
1192.8208817130000625, -0.00256729, -0.00320891, -0.00137788, 0.0383778, 0.590698, 0.194629
1192.8541980470001818, -0.00256731, -0.00320969, -0.00137818, 0.0383898, 0.58994, 0.194672
1192.8875143800000842, -0.00256703, -0.00321102, -0.00137895, 0.0384585, 0.588915, 0.194472
1192.9209806510000362, -0.00256701, -0.00321116, -0.00137907, 0.0384698, 0.588867, 0.194577
1192.9542970470001819, -0.00256713, -0.00321132, -0.00137931, 0.0385224, 0.589094, 0.195214
1192.9876133800000844, -0.00256606, -0.00321286, -0.00138252, 0.0387679, 0.586728, 0.194435
1193.0209296800001084, -0.00256549, -0.00321325, -0.0013829, 0.0388184, 0.586615, 0.194019
1193.054246047000106, -0.0025651, -0.00321326, -0.00138269, 0.0388451, 0.586966, 0.193756
1193.0875623800002359, -0.00256562, -0.00321296, -0.0013828, 0.0387508, 0.586544, 0.194208
1193.1208787130001383, -0.00256568, -0.00321272, -0.00138182, 0.0386969, 0.587625, 0.194843
1193.1541949850002311, -0.00256599, -0.00321266, -0.00138161, 0.0386695, 0.588121, 0.195524
1193.18751138000016, -0.0025664, -0.0032122, -0.0013811, 0.0385628, 0.588385, 0.196086
1193.2208277130000624, -0.00256674, -0.00321189, -0.00138003, 0.0385018, 0.589146, 0.196647
1193.2541440130000865, -0.00256742, -0.00321125, -0.00137932, 0.0383448, 0.589131, 0.197297
1193.2876103800001601, -0.00256759, -0.00321123, -0.00137953, 0.0382809, 0.589086, 0.197666
1193.3209266800001842, -0.00256843, -0.00321112, -0.00137869, 0.0379838, 0.589894, 0.198382
1193.3542430180000338, -0.00256873, -0.00321054, -0.00137825, 0.0377728, 0.590018, 0.198672
1193.3875593800000843, -0.00256883, -0.00321044, -0.00137832, 0.0377235, 0.58985, 0.198729
1193.4208757130002141, -0.00256902, -0.00321053, -0.00137831, 0.0377138, 0.590089, 0.199197
1193.454192047000106, -0.0025692, -0.00321068, -0.00137825, 0.0377412, 0.590225, 0.199539
1193.4875083510000877, -0.00256949, -0.00321129, -0.0013794, 0.0376929, 0.589848, 0.200936
1193.5208246800000325, -0.00256955, -0.00321131, -0.00137898, 0.0376881, 0.590231, 0.201048
1193.5541410180001094, -0.00256982, -0.00321182, -0.00137984, 0.037605, 0.590464, 0.202109
1193.5874573800001599, -0.00257039, -0.0032121, -0.0013795, 0.0375476, 0.591447, 0.203494
1193.6209237130001384, -0.00257082, -0.003212, -0.00137951, 0.0372539, 0.591643, 0.204541
1193.6542400470002576, -0.00257097, -0.00321308, -0.00138242, 0.0371447, 0.591109, 0.206502
1193.6875563800001601, -0.00257119, -0.00321329, -0.00138263, 0.0371401, 0.591236, 0.207124
1193.720872718000237, -0.00257113, -0.0032135, -0.0013835, 0.0374042, 0.591605, 0.206921
1193.7541890180000337, -0.00257089, -0.00321411, -0.00138475, 0.0379766, 0.592438, 0.206849
1193.7875053800000842, -0.00257072, -0.00321437, -0.00138537, 0.0381456, 0.592223, 0.207146
1193.820821713000214, -0.0025707, -0.00321474, -0.00138574, 0.0382668, 0.592454, 0.207467
1193.8541380470001059, -0.00257076, -0.0032148, -0.00138609, 0.0383507, 0.592497, 0.207579
1193.8874543460001405, -0.00257127, -0.00321519, -0.00138609, 0.0384303, 0.593474, 0.208523
1193.9207707130001381, -0.00257152, -0.00321594, -0.00138588, 0.0385065, 0.594683, 0.209442
1193.9542370460001166, -0.00257142, -0.00321643, -0.00138705, 0.0386026, 0.594619, 0.209862
1193.9875533800002358, -0.00257129, -0.00321677, -0.00138764, 0.0387009, 0.594775, 0.210057
1194.0208697130001383, -0.00257107, -0.00321698, -0.00138887, 0.0388923, 0.594449, 0.210323
1194.0541860460000407, -0.00257112, -0.00321753, -0.00139006, 0.0388889, 0.594367, 0.211408
1194.08750238000016, -0.00257139, -0.00321827, -0.00139, 0.0387966, 0.595105, 0.212583
1194.1208186850001312, -0.00257147, -0.00321874, -0.00139023, 0.0387236, 0.595346, 0.213368
1194.1541350180000336, -0.00257161, -0.00321924, -0.0013906, 0.0387054, 0.595679, 0.214237
1194.187451375000137, -0.00257164, -0.00321935, -0.00138959, 0.0386649, 0.59629, 0.214594
1194.2207677130002139, -0.00257186, -0.00321912, -0.00138959, 0.0385247, 0.596109, 0.214919
1194.254084013000238, -0.00257193, -0.00321959, -0.00139069, 0.0384031, 0.595961, 0.215712
1194.2874003320000611, -0.00257211, -0.00322029, -0.00139064, 0.0382222, 0.596318, 0.216388
1194.3208667130002141, -0.00257233, -0.00322171, -0.00139098, 0.0379118, 0.596925, 0.217634
1194.3541830460001165, -0.00257231, -0.00322295, -0.00139263, 0.03776, 0.597242, 0.21898
1194.3875015560001884, -0.00257262, -0.00322395, -0.00139193, 0.0376262, 0.598039, 0.219823
1194.4208156800000324, -0.00257269, -0.00322398, -0.00139195, 0.0376446, 0.598109, 0.219924
1194.4541320460000406, -0.00257242, -0.0032244, -0.00139429, 0.0375904, 0.597738, 0.220646
1194.4874483800001599, -0.00257243, -0.00322534, -0.00139451, 0.0374606, 0.598134, 0.221418
1194.5207646800001839, -0.00257307, -0.00322712, -0.00139262, 0.0373158, 0.599588, 0.222388
1194.5540810180000335, -0.00257299, -0.00322802, -0.00139402, 0.0373022, 0.599718, 0.223231
1194.5873973510001633, -0.00257305, -0.00322844, -0.00139397, 0.0372466, 0.599927, 0.223488
1194.6207136800001081, -0.00257307, -0.00322953, -0.00139315, 0.0372134, 0.60075, 0.224036
1194.654179989000113, -0.00257309, -0.00323122, -0.00139339, 0.0372374, 0.601565, 0.22506
1194.6874963510001635, -0.00257293, -0.00323236, -0.00139482, 0.0372352, 0.601898, 0.226108
1194.720812713000214, -0.00257287, -0.00323276, -0.00139524, 0.0371561, 0.601798, 0.226396
1194.7541290460001164, -0.00257282, -0.00323278, -0.00139673, 0.0372842, 0.601658, 0.226801
1194.7874453510000876, -0.00257302, -0.00323276, -0.00139669, 0.0373676, 0.601891, 0.226905
1194.8207616840002174, -0.0025737, -0.00323398, -0.00139587, 0.0376116, 0.603339, 0.227559
1194.8540780180001093, -0.00257329, -0.00322802, -0.00140083, 0.0383912, 0.602316, 0.226746
1194.8873943270000382, -0.00257316, -0.00322784, -0.00140292, 0.0384817, 0.601879, 0.226994
1194.9207107130000622, -0.00257315, -0.00322808, -0.00140363, 0.0386227, 0.602085, 0.227206
1194.9540270130000863, -0.00257298, -0.00322849, -0.00140434, 0.0387449, 0.602317, 0.227369
1194.9873433510001632, -0.00257293, -0.0032285, -0.00140519, 0.0388452, 0.60236, 0.227524
1195.020809651000036, -0.00257267, -0.00322945, -0.00140554, 0.0389565, 0.602963, 0.227828
1195.0541260460001922, -0.00257292, -0.00322984, -0.00140635, 0.0392043, 0.60344, 0.228049
1195.0874423840000418, -0.00257341, -0.00323052, -0.0014051, 0.0393428, 0.604302, 0.227973
1195.1207587320002403, -0.00257339, -0.00323121, -0.00140433, 0.0394799, 0.605003, 0.2279
1195.154075013000238, -0.00257326, -0.00323288, -0.00140474, 0.0393433, 0.605696, 0.228864
1195.1873913510000875, -0.00257427, -0.00323113, -0.00140273, 0.0390996, 0.604951, 0.228208
1195.220707713000138, -0.00257482, -0.00323029, -0.00140394, 0.0390275, 0.604562, 0.228385
1195.2540240460000405, -0.00257447, -0.0032319, -0.0014043, 0.038963, 0.605179, 0.229048
1195.2873403800001597, -0.0025747, -0.00323184, -0.0014044, 0.0387891, 0.60531, 0.229427
1195.3206574130001627, -0.00257502, -0.0032313, -0.00140468, 0.0385249, 0.60531, 0.229678
1195.3541229890001887, -0.00257484, -0.00323224, -0.00140602, 0.0383246, 0.605613, 0.230393
1195.3874393460000647, -0.0025747, -0.00323472, -0.00140643, 0.0381003, 0.606596, 0.231107
1195.4207556840001416, -0.00257479, -0.00323498, -0.00140656, 0.0380622, 0.606806, 0.231244
1195.4540720460001921, -0.00257488, -0.00323535, -0.00140693, 0.0379525, 0.607042, 0.231471
1195.4873883460002162, -0.00257486, -0.00323533, -0.00140704, 0.0379601, 0.607029, 0.231521
1195.5207046510001874, -0.00257487, -0.00323532, -0.00140786, 0.0379526, 0.607154, 0.232042
1195.5540210130002379, -0.00257481, -0.00323544, -0.00140901, 0.0379512, 0.607141, 0.232539
1195.5873373460001403, -0.00257473, -0.0032355, -0.00140929, 0.0379571, 0.607215, 0.232698
1195.6206536840002173, -0.0025745, -0.00323622, -0.00141079, 0.0379719, 0.607431, 0.233424
1195.6539700460000404, -0.00257382, -0.00323744, -0.00141272, 0.0380249, 0.608034, 0.234416
1195.6872863510002389, -0.00257314, -0.00323881, -0.00141405, 0.0381213, 0.608627, 0.234973
1195.7207526510001117, -0.0025727, -0.00323987, -0.00141467, 0.0381656, 0.6093, 0.235522
1195.7540690130001622, -0.00257229, -0.00324081, -0.00141646, 0.0382619, 0.609849, 0.236799
1195.7873853800001598, -0.00257213, -0.00324125, -0.00141687, 0.0382651, 0.610145, 0.237113
1195.820702294000057, -0.00257178, -0.00324209, -0.00141834, 0.0382621, 0.610589, 0.237743
1195.854018046000192, -0.00257155, -0.00324452, -0.00142177, 0.0382791, 0.611527, 0.238879
1195.8873343800000839, -0.00257124, -0.00324647, -0.00142315, 0.0381698, 0.611761, 0.239404
1195.9206506560001344, -0.00257035, -0.00324569, -0.0014249, 0.0382007, 0.610974, 0.240757
1195.9539670460001162, -0.00256983, -0.00324679, -0.00142569, 0.0383301, 0.611427, 0.240574
1195.9872833800002354, -0.00256962, -0.00324722, -0.00142585, 0.0383999, 0.611614, 0.240319
1196.0205996800000321, -0.00257035, -0.00324747, -0.00142729, 0.0384473, 0.61187, 0.241182
1196.0540660130002379, -0.00257077, -0.00324751, -0.0014271, 0.0384646, 0.611337, 0.241075
1196.0873823510000875, -0.00257027, -0.00324848, -0.00142855, 0.0385831, 0.611888, 0.241121
1196.120698713000138, -0.00257037, -0.00324875, -0.00142923, 0.0386431, 0.612323, 0.241271
1196.1540150130001621, -0.00257024, -0.00324933, -0.00142992, 0.0387407, 0.612501, 0.241042
1196.1873313790001703, -0.00256986, -0.00325087, -0.00143173, 0.0389095, 0.613683, 0.24115
1196.2206477130000621, -0.00256948, -0.00325168, -0.00143318, 0.0391284, 0.613512, 0.240654
1196.2539640180000333, -0.00256937, -0.00325171, -0.00143346, 0.0392277, 0.613376, 0.240206
1196.2872807460000786, -0.00256874, -0.00325285, -0.0014348, 0.0392149, 0.614052, 0.240955
1196.3205975460000445, -0.00256856, -0.00325385, -0.00143581, 0.0391498, 0.614603, 0.241642
1196.3539130180001848, -0.00256858, -0.00325362, -0.00143555, 0.0391074, 0.614729, 0.241733
1196.3872293460001401, -0.00256885, -0.00325325, -0.00143507, 0.0389762, 0.615026, 0.242043
1196.4206959750001715, -0.00256871, -0.00325332, -0.00143441, 0.038855, 0.615424, 0.242219
1196.4540120460001162, -0.00256882, -0.00325328, -0.00143382, 0.0386618, 0.615742, 0.242561
1196.4873283790002461, -0.00256883, -0.00325332, -0.00143366, 0.0385174, 0.616511, 0.242986
1196.5206468890000906, -0.00256874, -0.00325342, -0.00143459, 0.0383303, 0.616689, 0.244017
1196.553961013000162, -0.00256906, -0.00325314, -0.00143574, 0.0381832, 0.617371, 0.244644
1196.5872773790001702, -0.00256919, -0.00325291, -0.00143697, 0.0379414, 0.617736, 0.245015
1196.6205944840000939, -0.00256918, -0.00325277, -0.00143766, 0.0378268, 0.618155, 0.245155
1196.6539100460001919, -0.00256933, -0.00325298, -0.00143759, 0.0378212, 0.618682, 0.24489
1196.687226351000163, -0.00256927, -0.0032531, -0.00143767, 0.0378186, 0.619009, 0.244881
1196.7205427130002136, -0.00256916, -0.00325314, -0.00143749, 0.0378235, 0.619305, 0.244672
1196.7540090790000704, -0.00256917, -0.00325341, -0.00143801, 0.0378414, 0.620055, 0.244761
1196.7873253790000945, -0.0025691, -0.00325377, -0.00143774, 0.0379135, 0.620163, 0.244728
1196.8206416790001185, -0.00256902, -0.00325371, -0.0014381, 0.0379161, 0.620362, 0.244718
1196.8539580460001162, -0.00256903, -0.00325373, -0.0014384, 0.0378838, 0.620369, 0.244575
1196.8872743510000873, -0.00256904, -0.00325356, -0.00143911, 0.0379852, 0.620882, 0.2451
1196.9205907130001378, -0.00256938, -0.00325377, -0.00143888, 0.0381683, 0.621075, 0.245314
1196.9539070460000403, -0.00256943, -0.00325369, -0.0014397, 0.0381762, 0.621534, 0.245391
1196.9872233790001701, -0.00256953, -0.00325337, -0.00144102, 0.0381915, 0.622725, 0.245876
1197.020539713000062, -0.00256964, -0.0032533, -0.00144195, 0.0383693, 0.623319, 0.245993
1197.0538560460001918, -0.00256967, -0.00325338, -0.00144147, 0.038492, 0.623139, 0.24592
1197.0873223790001703, -0.00257016, -0.00325301, -0.00144109, 0.0385748, 0.623232, 0.246649
1197.1206386510000357, -0.00257037, -0.00325273, -0.00144138, 0.0386845, 0.623675, 0.247037
1197.1539550170000439, -0.00257046, -0.00325259, -0.00144187, 0.0387468, 0.624288, 0.247038
1197.1872713510001631, -0.00257053, -0.0032525, -0.0014419, 0.0388092, 0.62429, 0.2473
1197.2205877130002136, -0.00257059, -0.00325173, -0.00144125, 0.0392305, 0.624133, 0.247509
1197.2539040460001161, -0.00257075, -0.00325172, -0.00144131, 0.0393553, 0.624247, 0.24758
1197.2872203790002459, -0.0025705, -0.00325134, -0.00144307, 0.0395501, 0.625682, 0.247032
1197.3205366790000426, -0.00257042, -0.0032512, -0.00144338, 0.0396765, 0.626187, 0.246682
1197.3538530460000402, -0.00257058, -0.00325094, -0.00144363, 0.0397742, 0.626425, 0.246758
1197.38716937900017, -0.00257087, -0.0032501, -0.00144551, 0.0399475, 0.628816, 0.246448
1197.4204857130000619, -0.002571, -0.00324997, -0.00144541, 0.0399514, 0.628778, 0.246861
1197.4539520460000404, -0.00257107, -0.00324993, -0.00144557, 0.0398606, 0.629365, 0.247186
1197.4872683460000644, -0.0025716, -0.00324882, -0.00144632, 0.0399068, 0.630947, 0.247659
1197.520584713000062, -0.00257158, -0.00324881, -0.00144678, 0.039793, 0.631099, 0.247808
1197.5539010460001919, -0.00257176, -0.00324894, -0.001448, 0.0393476, 0.632533, 0.248404
1197.5872173460002159, -0.00257215, -0.00324836, -0.00144824, 0.0392446, 0.633554, 0.248884
1197.6205337130002135, -0.00257217, -0.00324824, -0.00144874, 0.0391063, 0.633705, 0.249234
1197.6538500130002376, -0.00257201, -0.00324858, -0.00144967, 0.0388606, 0.634026, 0.249152
1197.6871663510000872, -0.00257207, -0.00324834, -0.00144993, 0.0388513, 0.634413, 0.249159
1197.720482684000217, -0.00257247, -0.00324764, -0.00145011, 0.0388763, 0.635082, 0.249306
1197.7537990460000401, -0.00257266, -0.00324745, -0.00144984, 0.0388951, 0.634967, 0.249525
1197.7872653840001931, -0.00257274, -0.00324726, -0.0014499, 0.0388282, 0.634958, 0.250218
1197.8205817130001378, -0.00257294, -0.00324732, -0.00145014, 0.0387233, 0.635046, 0.251202
1197.8538980130001619, -0.0025732, -0.00324696, -0.00145012, 0.0387122, 0.635377, 0.251854
1197.8872143790001701, -0.00257319, -0.00324706, -0.00145013, 0.0386874, 0.635274, 0.252196
1197.920530713000062, -0.0025733, -0.00324707, -0.0014498, 0.0387015, 0.635003, 0.252802
1197.953847013000086, -0.00257367, -0.00324663, -0.00144959, 0.03875, 0.635031, 0.253841
1197.9871633460002158, -0.00257418, -0.00324624, -0.00144913, 0.0387915, 0.634847, 0.254354
1198.0204797130002135, -0.00257452, -0.00324599, -0.00144836, 0.0388791, 0.634472, 0.255308
1198.0537960460001159, -0.00257482, -0.00324538, -0.00144848, 0.0389877, 0.634669, 0.255676
1198.0871123510000871, -0.00257476, -0.00324544, -0.00144862, 0.0391117, 0.634707, 0.255797
1198.1204287130001376, -0.00257486, -0.00324508, -0.00144864, 0.0392033, 0.634739, 0.256
1198.1538950170001954, -0.00257505, -0.00324517, -0.00144857, 0.0392563, 0.634158, 0.256345
1198.1872113790002459, -0.00257512, -0.00324427, -0.00144886, 0.0394358, 0.634119, 0.256155
1198.2205276790000426, -0.00257517, -0.00324372, -0.00144882, 0.039547, 0.634355, 0.256137
1198.2538440130001618, -0.00257512, -0.00324353, -0.0014494, 0.0396526, 0.634102, 0.256053
1198.28716037900017, -0.00257503, -0.00324177, -0.00145167, 0.0401206, 0.634054, 0.256123
1198.3204766790001941, -0.00257529, -0.00324132, -0.00145166, 0.0401695, 0.634251, 0.256476
1198.3537929890001124, -0.00257531, -0.00324174, -0.00145156, 0.040135, 0.633885, 0.25701
1198.3871093460002157, -0.00257521, -0.00324201, -0.00145213, 0.0402349, 0.63272, 0.257176
1198.4204257120002239, -0.00257518, -0.00324212, -0.00145245, 0.0402415, 0.632521, 0.25752
1198.453742012000248, -0.0025754, -0.00324164, -0.0014523, 0.040273, 0.632899, 0.257703
1198.4872083790000943, -0.0025755, -0.00324083, -0.00145238, 0.0403843, 0.633285, 0.258205
1198.5205246840000655, -0.00257561, -0.00324066, -0.00145179, 0.0403431, 0.633548, 0.258827
1198.5538410170001953, -0.00257619, -0.0032403, -0.00145134, 0.0401458, 0.634324, 0.261185
1198.5871573790002458, -0.00257541, -0.00324218, -0.0014523, 0.0399253, 0.633753, 0.262073
1198.6204736790000425, -0.00257781, -0.00323751, -0.00145057, 0.0400834, 0.63521, 0.263213
1198.653789984000241, -0.00257803, -0.00323798, -0.00145094, 0.039891, 0.635394, 0.264077
1198.6871063790001699, -0.00257818, -0.00323835, -0.00145143, 0.0397409, 0.635413, 0.26444
1198.7204227120000724, -0.00257835, -0.00323862, -0.00145206, 0.0395981, 0.635677, 0.265229
1198.7537390120000964, -0.00257859, -0.00323846, -0.00145223, 0.039485, 0.636157, 0.266186
1198.7870553980001205, -0.00257872, -0.0032385, -0.00145238, 0.0394014, 0.636348, 0.266606
1198.8203717120002239, -0.00257872, -0.00323844, -0.00145236, 0.0393784, 0.63663, 0.266733
1198.8538379890001124, -0.00257855, -0.00323873, -0.00145321, 0.0391619, 0.637047, 0.267227
1198.8871543460002158, -0.00257876, -0.00323951, -0.00145462, 0.0388985, 0.636479, 0.266918
1198.920470712000224, -0.00257921, -0.00323982, -0.00145467, 0.0388647, 0.63568, 0.266783
1198.9537870460001159, -0.00257935, -0.00323996, -0.00145461, 0.0388418, 0.635408, 0.266731
1198.9871033460001399, -0.00257938, -0.00323992, -0.00145451, 0.0388938, 0.635393, 0.266834
1199.0204197120001481, -0.00257949, -0.00323997, -0.00145463, 0.0389302, 0.635331, 0.267043
1199.05373604600004, -0.00257973, -0.00323934, -0.00145474, 0.0390449, 0.635673, 0.268156
1199.0870546170001489, -0.00257976, -0.00323895, -0.00145481, 0.0391062, 0.636043, 0.268398
1199.120368684000141, -0.00258004, -0.00323907, -0.00145486, 0.0391546, 0.635701, 0.268608
1199.1536850170000434, -0.00258015, -0.0032392, -0.001455, 0.0392627, 0.635196, 0.269255
1199.18715137900017, -0.00257931, -0.00324065, -0.00145559, 0.0392881, 0.634081, 0.269273
1199.220467679000194, -0.00257941, -0.00324035, -0.00145606, 0.0394254, 0.634149, 0.269613
1199.2537840460001917, -0.00257968, -0.00323976, -0.001457, 0.0396711, 0.633974, 0.270751
1199.2871003460002157, -0.00257968, -0.00323976, -0.001457, 0.0396711, 0.633974, 0.270751
1199.3204166790001182, -0.00257947, -0.00323842, -0.00145754, 0.0399431, 0.63504, 0.270239
1199.353733012000248, -0.00257931, -0.0032378, -0.00145796, 0.0400899, 0.635216, 0.270606
1199.3870493790002456, -0.00257946, -0.00323852, -0.00145781, 0.0400089, 0.634443, 0.270732
1199.4203657120001481, -0.00257965, -0.0032387, -0.00145774, 0.0399752, 0.634213, 0.27078
1199.4536820460000399, -0.00257954, -0.00323852, -0.00145817, 0.0400698, 0.634391, 0.270757
1199.4869983790001697, -0.0025797, -0.00323842, -0.00145716, 0.0400019, 0.635368, 0.270939
1199.5203147120000722, -0.0025797, -0.0032391, -0.00145781, 0.0399674, 0.634643, 0.271067
1199.5537810120001723, -0.00257961, -0.003239, -0.00145815, 0.0400236, 0.634671, 0.270989
1199.5870973460000641, -0.00257963, -0.00323954, -0.00145811, 0.0399857, 0.634732, 0.271192
1199.6204137120000723, -0.0025799, -0.00324055, -0.00145747, 0.0397189, 0.634271, 0.27195
1199.6537300460001916, -0.00257976, -0.00324249, -0.00145773, 0.0393506, 0.633932, 0.272994
1199.6870463460002156, -0.00257963, -0.0032435, -0.0014586, 0.0392419, 0.633164, 0.273424
1199.7203627120002238, -0.00257965, -0.00324383, -0.00145889, 0.0391611, 0.632815, 0.272986
1199.7536789840000893, -0.00257959, -0.00324383, -0.00145888, 0.0391342, 0.632864, 0.27347
1199.7869953460001398, -0.00257936, -0.00324549, -0.0014598, 0.0388811, 0.632484, 0.274284
1199.8203116790000422, -0.00257916, -0.00324686, -0.00146124, 0.0386509, 0.631607, 0.274711
1199.8536280460000398, -0.00257909, -0.0032472, -0.00146135, 0.0385763, 0.631291, 0.2749
1199.8870943790002457, -0.0025791, -0.00324735, -0.00146162, 0.0385212, 0.631188, 0.275085
1199.9204106790000424, -0.00257937, -0.00324711, -0.00146145, 0.0385641, 0.631352, 0.275572
1199.95372704600004, -0.00257973, -0.00324683, -0.00146102, 0.0386307, 0.631576, 0.27674
1199.9870438360001117, -0.00257992, -0.00324679, -0.00146095, 0.0386171, 0.631492, 0.277022
1200.0203596650001145, -0.0025801, -0.00324654, -0.00146083, 0.0386872, 0.631552, 0.277335
1200.0536760460001915, -0.00258031, -0.00324612, -0.00146055, 0.0387618, 0.631719, 0.278086
1200.0869923790000939, -0.00258023, -0.003246, -0.00146071, 0.0387834, 0.631785, 0.278263
1200.1203087120002237, -0.00258059, -0.00324597, -0.00146118, 0.0388333, 0.631268, 0.278061
1200.1536250120002478, -0.00258104, -0.00324591, -0.00146103, 0.0389298, 0.630775, 0.278278
1200.1869413790002454, -0.00258146, -0.0032445, -0.00146116, 0.0392699, 0.630834, 0.279437
1200.2204077120002239, -0.00258164, -0.00324379, -0.00146128, 0.0394099, 0.631092, 0.280704
1200.253723988000047, -0.00258194, -0.00324271, -0.0014617, 0.0395664, 0.631645, 0.281319
1200.2870403790002456, -0.00258229, -0.0032412, -0.00146236, 0.0397717, 0.631604, 0.281657
1200.320356712000148, -0.0025823, -0.00324107, -0.00146241, 0.0397884, 0.631685, 0.281826
1200.3536730170001192, -0.00258236, -0.0032404, -0.00146258, 0.039931, 0.631982, 0.282103
1200.3869893790001697, -0.00258237, -0.00323938, -0.00146343, 0.0401516, 0.632609, 0.28273
1200.4203056790001938, -0.00258256, -0.00323849, -0.00146438, 0.0403634, 0.632485, 0.283067
1200.4536220170000433, -0.00258227, -0.00323764, -0.00146521, 0.0405724, 0.632798, 0.282411
1200.4869383220002419, -0.00258198, -0.00323722, -0.00146566, 0.0406706, 0.633239, 0.282501
1200.5202547120002237, -0.00258294, -0.00323793, -0.00146436, 0.040495, 0.63221, 0.28291
1200.5535710120002477, -0.00258323, -0.00323849, -0.00146557, 0.0405129, 0.631085, 0.282912
1200.5870373690001998, -0.00258314, -0.0032387, -0.00146555, 0.0404941, 0.631059, 0.283202
1200.6203536790001181, -0.00258331, -0.00323892, -0.00146557, 0.0404848, 0.630937, 0.283282
1200.653670017000195, -0.00258323, -0.00323744, -0.00146582, 0.0406538, 0.631911, 0.283477
1200.6869863790002455, -0.00258357, -0.00323745, -0.00146508, 0.0405823, 0.632002, 0.284862
1200.7203027120001479, -0.00258363, -0.00323789, -0.00146459, 0.0404285, 0.632006, 0.285169
1200.7536190450000504, -0.00258365, -0.00323813, -0.00146389, 0.0402967, 0.632082, 0.285168
1200.7869353790001696, -0.00258337, -0.00323996, -0.00146403, 0.0399888, 0.631177, 0.285199
1200.8202517120000721, -0.00258346, -0.00324015, -0.001464, 0.0399133, 0.630952, 0.28545
1200.8535680120000961, -0.00258343, -0.00324017, -0.00146395, 0.039881, 0.630972, 0.285451
1200.8868843790000938, -0.00258349, -0.00324049, -0.00146367, 0.0396906, 0.630965, 0.286074
1200.920350684000141, -0.00258362, -0.00324076, -0.00146315, 0.0394555, 0.631163, 0.286125
1200.9536670450002021, -0.0025836, -0.00324081, -0.00146299, 0.0393787, 0.631226, 0.286181
1200.9869833170000675, -0.00258356, -0.00324107, -0.0014629, 0.039235, 0.630964, 0.286246
1201.0202997120002237, -0.00258343, -0.00324148, -0.00146259, 0.0390932, 0.630619, 0.286794
1201.0536160450001262, -0.00258339, -0.00324123, -0.00146278, 0.0391174, 0.630927, 0.287044
1201.0869323790002454, -0.00258343, -0.0032413, -0.00146333, 0.0391344, 0.630719, 0.287344
1201.1202486790000421, -0.0025833, -0.00324131, -0.0014636, 0.0391727, 0.630763, 0.288134
1201.1535650450000503, -0.00258317, -0.00324132, -0.00146394, 0.0391937, 0.630503, 0.288107
1201.1868813500002489, -0.00258342, -0.00324126, -0.00146429, 0.0392483, 0.630332, 0.28837
1201.2201976840001407, -0.00258319, -0.00324044, -0.00146516, 0.0394939, 0.630965, 0.288562
1201.2535140450002018, -0.00258322, -0.00323924, -0.00146566, 0.0397829, 0.63159, 0.288886
1201.2869803790001697, -0.00258311, -0.00323933, -0.00146553, 0.0397177, 0.631653, 0.288746
1201.3202966830001515, -0.00258334, -0.0032391, -0.00146569, 0.0398058, 0.631548, 0.288952
1201.353613045000202, -0.00258317, -0.00323798, -0.00146703, 0.0401117, 0.631567, 0.288431
1201.3869293790000938, -0.00258306, -0.00323767, -0.0014672, 0.0402081, 0.631484, 0.288511
1201.4202457120002236, -0.00258297, -0.00323729, -0.00146829, 0.040368, 0.631544, 0.288353
1201.4535620450001261, -0.00258281, -0.00323701, -0.00146852, 0.0404239, 0.631804, 0.288288
1201.4868783790002453, -0.00258224, -0.0032359, -0.00146953, 0.0406167, 0.632678, 0.287558
1201.520194679000042, -0.00258171, -0.00323523, -0.00146918, 0.0406164, 0.633572, 0.287226
1201.553511017000119, -0.00258197, -0.00323532, -0.00146836, 0.0405167, 0.633649, 0.287952
1201.5868273790001695, -0.0025822, -0.00323612, -0.00146835, 0.0404536, 0.632846, 0.28799
1201.6202936830002272, -0.00258213, -0.00323592, -0.00146797, 0.0404186, 0.633321, 0.288193
1201.6536100450000504, -0.0025822, -0.00323593, -0.00146775, 0.0403916, 0.633474, 0.288541
1201.6869263450000744, -0.00258222, -0.00323542, -0.00146712, 0.0403784, 0.63412, 0.288852
1201.7202426830001514, -0.00258228, -0.00323501, -0.0014661, 0.0402635, 0.635237, 0.289984
1201.7535590120000961, -0.00258266, -0.00323478, -0.00146563, 0.0401899, 0.635565, 0.290121
1201.7868753790000937, -0.00258289, -0.00323538, -0.00146526, 0.0400241, 0.63559, 0.289805
1201.8201916790001178, -0.00258299, -0.00323636, -0.00146478, 0.0398166, 0.635649, 0.290649
1201.853508045000126, -0.002583, -0.00323701, -0.00146467, 0.0396678, 0.635448, 0.290755
1201.8868243790002452, -0.00258286, -0.00323714, -0.00146455, 0.0395793, 0.635668, 0.290973
1201.9201406790000419, -0.00258286, -0.00323804, -0.00146478, 0.0394192, 0.635233, 0.291309
1201.9534570170001189, -0.00258282, -0.00323956, -0.00146538, 0.0391146, 0.634718, 0.291877
1201.9869233450001502, -0.00258283, -0.00324123, -0.00146638, 0.0388268, 0.634087, 0.292668
1202.0202397120001478, -0.00258305, -0.00324139, -0.0014665, 0.0388256, 0.633798, 0.292945
1202.053556017000119, -0.00258302, -0.00324135, -0.00146639, 0.038838, 0.633598, 0.292833
1202.0868723790001695, -0.00258303, -0.00324181, -0.00146665, 0.0387508, 0.633552, 0.29307
1202.1201886830001513, -0.00258331, -0.00324239, -0.00146689, 0.0386894, 0.633084, 0.293714
1202.1535050450002018, -0.00258343, -0.00324202, -0.0014666, 0.0387406, 0.633286, 0.29405
1202.186821350000173, -0.00258374, -0.00324188, -0.00146679, 0.0387944, 0.633094, 0.294546
1202.2201377120002235, -0.00258403, -0.00324148, -0.00146725, 0.038901, 0.632748, 0.294583
