time, bias_gyr_x, bias_gyr_y, bias_gyr_z, bias_acc_x, bias_acc_y, bias_acc_z
-1, 0, 0, 0, 0, 0, 0
1159.055937983000149, 0, 0, 0, 0, 0, 0
1159.0892651460001161, -0.00339555, -0.0057629, -0.00184256, -1.77275e-06, -3.79937e-06, 2.01746e-06
1159.1225922780001838, -0.00220361, 0.00319997, -0.00309009, -0.00342734, 0.000122604, -3.85366e-05
1159.1559194680000928, 0.00113391, 0.00474053, -0.00186385, -0.00393061, 0.000502971, 0.000378131
1159.1893966780000937, 0.00255359, 0.00603516, -0.000898114, 0.00445096, -0.000111689, 0.000902229
1159.2227238390000821, 0.000510928, 0.00480552, -0.00047678, 0.0350041, 0.000559724, 0.0026813
1159.2560509720001392, -0.00198548, 0.00239491, -0.000676882, 0.0851202, 0.00151278, 0.00596826
1159.2893781330001275, -0.00364177, -0.000488638, -0.000601956, 0.135433, 0.00228365, 0.00950461
1159.3227052940001158, -0.00291263, -0.00241862, -0.000613944, 0.140363, 0.00241107, 0.00988362
1159.3560324220002258, -0.00292933, -0.00248985, -0.00103572, 0.108142, 0.00243725, 0.00761518
1159.3893596450002406, -0.00268261, -0.0030266, -0.00118383, 0.0919079, 0.00249489, 0.00651356
1159.4226867770000808, -0.00255854, -0.00363819, -0.00131762, 0.0811323, 0.00252016, 0.00579087
1159.4560139340001115, -0.00232362, -0.0036298, -0.00130981, 0.0653786, 0.00252967, 0.00468069
1159.4893411330001527, -0.00242504, -0.00367668, -0.00132011, 0.0580604, 0.0025155, 0.00411757
1159.5228183380002065, -0.00249539, -0.00389389, -0.001345, 0.0600002, 0.0025213, 0.00430923
1159.5561454710000362, -0.0024397, -0.00406582, -0.00133089, 0.0601571, 0.00252285, 0.00431749
1159.5894726270000774, -0.00254, -0.00389688, -0.00132998, 0.0531875, 0.00254389, 0.00347671
1159.6227997930002402, -0.00245006, -0.00377029, -0.00134938, 0.0502298, 0.00256741, 0.00305961
1159.6561269830001493, -0.00252694, -0.00373856, -0.001397, 0.0516256, 0.00254964, 0.00329337
1159.6894541440001376, -0.00246562, -0.00384402, -0.00146794, 0.0572977, 0.00244912, 0.00440031
1159.7227812720002476, -0.00238212, -0.00381436, -0.00146794, 0.0556971, 0.00248244, 0.0040452
1159.7561084370001936, -0.00216347, -0.00355313, -0.00155772, 0.0515213, 0.00255832, 0.00301548
1159.7894356270001026, -0.00182895, -0.0033771, -0.00157703, 0.0495397, 0.00259062, 0.00247239
1159.8227627600001597, -0.00157301, -0.00320432, -0.0015994, 0.0502383, 0.00258972, 0.0026916
1159.8562399980000919, -0.00129856, -0.00310612, -0.00159433, 0.051663, 0.00260453, 0.00315796
1159.8895671590000802, -0.00110079, -0.00298394, -0.0016141, 0.0526119, 0.00263788, 0.00343051
1159.9228943200000685, -0.000935228, -0.00287612, -0.00159357, 0.0526371, 0.00264962, 0.00340146
1159.9562214480001785, -0.000796418, -0.00287779, -0.00156949, 0.055199, 0.00279407, 0.00426344
1159.9895485810002356, -0.000671898, -0.00288524, -0.00153449, 0.0561033, 0.00284944, 0.00457615
1160.0228711280001335, -0.00056244, -0.00287593, -0.00152395, 0.0567549, 0.00288784, 0.00473882
1160.0561869900002421, -0.000548704, -0.00288006, -0.00154452, 0.0571825, 0.00289902, 0.00489181
1160.089503385000171, -0.000538823, -0.00281364, -0.00151638, 0.0553369, 0.00306002, 0.00450687
1160.122819685000195, -0.000534454, -0.00281358, -0.00149102, 0.0556911, 0.00305579, 0.00457152
1160.1561360520001926, -0.00051693, -0.00284539, -0.00149405, 0.056473, 0.00297281, 0.00468199
1160.1896023850001711, -0.000537846, -0.00282157, -0.00149447, 0.0557479, 0.00310061, 0.00464518
1160.2229187180000736, -0.000644367, -0.00280483, -0.00148669, 0.0557616, 0.00312065, 0.00462294
1160.2562350180000976, -0.000776861, -0.00284989, -0.00145066, 0.0562655, 0.0030501, 0.00460041
1160.2895513850000953, -0.00088008, -0.00294711, -0.0014187, 0.0571765, 0.00287461, 0.00451365
1160.3228676850001193, -0.00100535, -0.00301131, -0.00137608, 0.0571613, 0.00289757, 0.00450928
1160.3561840230001962, -0.00111096, -0.00303563, -0.00133878, 0.0563339, 0.00311748, 0.00462427
1160.3895003560000987, -0.00119524, -0.00306906, -0.00130696, 0.0557092, 0.00328427, 0.00469905
1160.4228167560002021, -0.00124265, -0.00306926, -0.00126183, 0.054703, 0.00351968, 0.00486515
1160.4561330510000516, -0.00125206, -0.00306037, -0.00122698, 0.0538666, 0.00369832, 0.00488647
1160.4894493560002502, -0.00114269, -0.00305706, -0.00121716, 0.054319, 0.00378269, 0.00461729
1160.5227656850001949, -0.00103192, -0.00309546, -0.0012304, 0.0551602, 0.00392213, 0.004602
1160.5562320230001205, -0.000958286, -0.00300513, -0.00119659, 0.0575547, 0.00434174, 0.00487352
1160.589548385000171, -0.000933725, -0.00291001, -0.00115584, 0.0592675, 0.00515352, 0.00505151
1160.6228647180000735, -0.000886079, -0.00293028, -0.00115732, 0.0597608, 0.00535235, 0.00534829
1160.6561816230000659, -0.000839727, -0.00296484, -0.00116106, 0.0617371, 0.00545634, 0.00634247
1160.6894973560001745, -0.000868428, -0.00299079, -0.00117409, 0.0632816, 0.00518372, 0.00749447
1160.7228136850001192, -0.000890124, -0.00293622, -0.00115582, 0.0603754, 0.00616235, 0.00420227
1160.756130018000249, -0.000899986, -0.00292987, -0.00116018, 0.0591533, 0.00714548, 0.00216962
1160.7894463560000986, -0.000900685, -0.00292117, -0.00115524, 0.0579788, 0.00873528, -0.00160331
1160.8227627180001491, -0.000897112, -0.00293741, -0.00114991, 0.0611299, 0.00344726, 0.00878199
1160.8560790610001732, -0.000896632, -0.00295313, -0.0011594, 0.0637322, -0.00126631, 0.0191842
1160.8895458040001358, -0.00089554, -0.00295039, -0.00117411, 0.0650551, -0.00461391, 0.0270776
1160.922861690000218, -0.00090199, -0.00292743, -0.00118326, 0.0649122, -0.00492047, 0.0261959
1160.9561780230001204, -0.000916522, -0.00287304, -0.00116228, 0.0618752, -0.001014, 0.0102759
1160.989494385000171, -0.00093312, -0.00286692, -0.00114861, 0.0600119, 0.00175549, -0.000333651
1161.0228106890001527, -0.000935311, -0.00286172, -0.00113942, 0.0594448, 0.00278376, -0.00502379
1161.0561270370001239, -0.000938349, -0.0028659, -0.00114762, 0.0610743, 0.00160486, 0.0048508
1161.0894433850000951, -0.000954553, -0.00284879, -0.00114902, 0.0618143, 0.00116281, 0.0111612
1161.1227597180002249, -0.00096068, -0.00279935, -0.00111975, 0.0601759, 0.00156965, 0.00326718
1161.156076018000249, -0.000958366, -0.00279052, -0.00111057, 0.0587291, 0.00181014, -0.00401533
1161.1893923850002466, -0.000974434, -0.00277893, -0.00109016, 0.0581906, 0.00173104, -0.00718552
1161.222708718000149, -0.000990881, -0.00279227, -0.0010781, 0.0581405, 0.0020539, -0.006624
1161.2561750510001275, -0.00099709, -0.00279574, -0.00107948, 0.0579489, 0.00225118, -0.00615495
1161.2894913560000987, -0.0009923, -0.00283572, -0.00108583, 0.059815, -9.23809e-05, -0.00328636
1161.3228077180001492, -0.000977086, -0.00283499, -0.00107975, 0.06061, -0.00101493, -0.00328763
1161.3561240230001204, -0.00096356, -0.00283078, -0.0010593, 0.0593555, 0.00547678, -0.000830295
1161.3894403850001709, -0.000963288, -0.00280708, -0.0010582, 0.0570124, 0.01331, 0.00217862
1161.4227567180000733, -0.000974446, -0.00278548, -0.00105141, 0.0563995, 0.0148312, 0.0038906
1161.4560730510002031, -0.000987529, -0.00278024, -0.00104743, 0.0551368, 0.0188217, 0.00822824
1161.489389385000095, -0.000996649, -0.00278276, -0.00104418, 0.0540594, 0.0230125, 0.0128179
1161.5227057180002248, -0.00100451, -0.00275943, -0.00104701, 0.0514907, 0.030173, 0.0236669
1161.5560220510001272, -0.00100828, -0.00277574, -0.0010502, 0.0538592, 0.0245195, 0.0131703
1161.5894883700002538, -0.00101398, -0.0027541, -0.00106041, 0.0514465, 0.0282601, 0.0247392
1161.622804718000225, -0.00101698, -0.00276584, -0.00106294, 0.0518689, 0.0285862, 0.0202495
1161.6561210510001274, -0.00100178, -0.00276609, -0.00105436, 0.0528322, 0.0283103, 0.0131215
1161.6894373850002466, -0.000995875, -0.00273075, -0.0010587, 0.0493527, 0.028175, 0.0366866
1161.7227536850000433, -0.000995602, -0.00271188, -0.00105346, 0.0479883, 0.0280873, 0.044373
1161.7560700510000515, -0.00100548, -0.00270096, -0.00104908, 0.0473232, 0.0278673, 0.0492026
1161.7893863510000756, -0.0010183, -0.00267283, -0.00105619, 0.0441056, 0.0248071, 0.0763208
1161.8227027180000732, -0.00102422, -0.00265458, -0.00104185, 0.0424302, 0.0232756, 0.0859996
1161.8560190180000973, -0.00100858, -0.00270378, -0.0010296, 0.05197, 0.0334748, 0.000451544
1161.8893353560001742, -0.00100421, -0.00271219, -0.00103624, 0.0565, 0.0378369, -0.0415951
1161.9228017180000734, -0.00100962, -0.00271007, -0.00102096, 0.0607174, 0.043565, -0.0821767
1161.9561180230000446, -0.00101624, -0.00271107, -0.00101695, 0.0644456, 0.0500441, -0.117863
1161.9894343560001744, -0.00101283, -0.00270889, -0.00102051, 0.062224, 0.0454469, -0.0961518
1162.0227506850001191, -0.00100626, -0.00271297, -0.00101611, 0.0584813, 0.0373307, -0.0604381
1162.0560670510001273, -0.000998595, -0.00269388, -0.00100688, 0.0550307, 0.0282023, -0.0269817
1162.0893833560000985, -0.000985942, -0.00269085, -0.00100235, 0.0557513, 0.0309798, -0.0344035
1162.1226996850000432, -0.00098733, -0.00268687, -0.000994216, 0.0540223, 0.0251634, -0.0176381
1162.1560160510000514, -0.000977994, -0.00268104, -0.000986202, 0.0513057, 0.013663, 0.00972212
1162.1893323850001707, -0.000966789, -0.00269898, -0.000980524, 0.0462519, -0.0138787, 0.0587527
1162.2226487180000731, -0.000969568, -0.00269249, -0.000976026, 0.0455636, -0.0170731, 0.0654642
1162.2559650510002029, -0.000968895, -0.00269357, -0.00097829, 0.0461069, -0.0140439, 0.0599478
1162.2894313850001708, -0.000968183, -0.00269196, -0.000985712, 0.0474765, -0.00558627, 0.0461399
1162.3227477180000733, -0.000967011, -0.00269185, -0.000989045, 0.0476365, -0.00567607, 0.0435478
1162.3560640180000973, -0.000967191, -0.00269408, -0.00099464, 0.047577, -0.0108479, 0.0424785
1162.3893803560001743, -0.000974599, -0.00269621, -0.00100092, 0.0480332, -0.0116714, 0.0381151
1162.4226967180002248, -0.00097246, -0.00269932, -0.000995603, 0.0473403, -0.0167136, 0.0455808
1162.4560130510001272, -0.000983976, -0.0027012, -0.0009929, 0.0468114, -0.0251647, 0.0509323
1162.4893293890002042, -0.000989221, -0.00270323, -0.00098936, 0.0458015, -0.0365364, 0.0609068
1162.5226456850000432, -0.000989931, -0.00270513, -0.000987511, 0.0459816, -0.0334856, 0.0593633
1162.5559619890002523, -0.000987005, -0.00270151, -0.000984853, 0.0455736, -0.0243899, 0.0650986
1162.5892783560002499, -0.000982356, -0.0026964, -0.000981622, 0.0442548, -0.0258556, 0.0776071
1162.6227447230000962, -0.000978795, -0.00270199, -0.000987135, 0.043694, -0.0334163, 0.081954
1162.6560609940001996, -0.00097484, -0.00269274, -0.000985365, 0.0425224, -0.0313249, 0.0926784
1162.6893773510000756, -0.000979669, -0.00267535, -0.000984823, 0.042603, -0.0190086, 0.092568
1162.7226937180000732, -0.00098287, -0.0026575, -0.000983047, 0.0425494, -0.00806825, 0.0915713
1162.756010051000203, -0.000972964, -0.00266509, -0.000977854, 0.0418555, -0.0131703, 0.0963607
1162.7893263840001055, -0.000963305, -0.00266368, -0.000973619, 0.0408206, -0.0130657, 0.105034
1162.8226426840001295, -0.000958118, -0.00265756, -0.000980652, 0.0393888, -0.011292, 0.113762
1162.8559590230001959, -0.000956848, -0.00265139, -0.000974184, 0.039927, -0.004154, 0.109309
1162.8892753420002464, -0.000955373, -0.00264739, -0.000976917, 0.0395454, -0.000731928, 0.111064
1162.9225916840000536, -0.000951273, -0.00264139, -0.00098079, 0.0388574, 0.00198749, 0.111966
1162.95590802300012, -0.0009503, -0.0026426, -0.000984631, 0.0389692, -0.00298128, 0.107837
1162.9893743940001514, -0.000943955, -0.00264097, -0.000993812, 0.0382706, -0.00251161, 0.110044
1163.022690718000149, -0.000945158, -0.00263304, -0.00100447, 0.0388077, -0.00426974, 0.102468
1163.0560070560002259, -0.000944227, -0.00261296, -0.00100968, 0.0383482, 0.00646833, 0.104546
1163.0893233840001812, -0.00094925, -0.0026029, -0.00101248, 0.0391608, 0.00444614, 0.0966327
1163.1226396840002053, -0.000965165, -0.00258552, -0.00101223, 0.040176, 0.0055498, 0.0866288
1163.1559560180000972, -0.000967945, -0.00259153, -0.00102969, 0.0399111, 0.00785383, 0.0882206
1163.1892723840001054, -0.000964751, -0.0025983, -0.00105645, 0.0382009, 0.0254918, 0.101863
1163.2225886840001294, -0.000963347, -0.00259582, -0.00105752, 0.0374495, 0.0352751, 0.10813
1163.2559050510001271, -0.000964617, -0.00260639, -0.00106377, 0.0365886, 0.0472764, 0.115936
1163.2892213840002569, -0.000967167, -0.00261316, -0.0010721, 0.0367999, 0.0431107, 0.114859
1163.3226876890000767, -0.00097301, -0.00260627, -0.00106819, 0.0368338, 0.0432313, 0.114564
1163.3560040180002488, -0.000985134, -0.00258903, -0.00107094, 0.0375844, 0.0313459, 0.106673
1163.3893203560000984, -0.000980497, -0.00258948, -0.00109636, 0.0387242, 0.0105673, 0.0983414
1163.4226367180001489, -0.000983223, -0.002589, -0.00109134, 0.0387065, 0.0108608, 0.0980395
1163.4559530220001307, -0.000986228, -0.00260764, -0.00109179, 0.0370976, 0.0416826, 0.111759
1163.4892693220001547, -0.000985819, -0.00261071, -0.00108885, 0.0370708, 0.0434749, 0.109725
1163.5225856890001523, -0.000994465, -0.00261017, -0.00107353, 0.0369484, 0.0477254, 0.106286
1163.5559020510002028, -0.00100856, -0.00264172, -0.00107539, 0.0354626, 0.0780357, 0.119507
1163.5892183840001053, -0.00101216, -0.00266859, -0.00108383, 0.0336586, 0.116456, 0.133867
1163.6225385030002144, -0.00100981, -0.00265722, -0.00109625, 0.034072, 0.108457, 0.126918
1163.655851051000127, -0.00103444, -0.00268399, -0.00109472, 0.0323431, 0.149321, 0.135291
1163.6893173560001742, -0.00103814, -0.00268957, -0.00108406, 0.0318081, 0.163287, 0.136096
1163.7226341700002195, -0.00103864, -0.00268876, -0.00106553, 0.0320135, 0.159211, 0.128643
1163.7559500510001271, -0.00102995, -0.00269497, -0.0010577, 0.031753, 0.166971, 0.124776
1163.7892663840002569, -0.00103005, -0.00270199, -0.00106919, 0.0311341, 0.179395, 0.12781
1163.8225826890002281, -0.00104646, -0.00271463, -0.00109614, 0.0291586, 0.219557, 0.141629
1163.8558990510000513, -0.00106948, -0.00270687, -0.00111695, 0.0269446, 0.263398, 0.159616
1163.8892153840001811, -0.00108532, -0.00268853, -0.00113845, 0.0257079, 0.286352, 0.169254
1163.9225316890001523, -0.00109407, -0.00267756, -0.00114619, 0.0252473, 0.292439, 0.17333
1163.955848018000097, -0.00109038, -0.00267998, -0.00114723, 0.0256511, 0.286786, 0.170188
1163.9891643840001052, -0.00108709, -0.00268984, -0.00115153, 0.0260308, 0.281781, 0.167621
1164.0226307180000731, -0.0010774, -0.00269483, -0.00114533, 0.0263603, 0.278381, 0.165821
1164.0559470220000549, -0.00107873, -0.00270264, -0.00114245, 0.0271108, 0.266659, 0.160655
1164.0892633560001741, -0.00107785, -0.00268993, -0.00112556, 0.0269916, 0.270439, 0.161552
1164.1225796600001559, -0.00107219, -0.00268363, -0.00113379, 0.026298, 0.283143, 0.166284
1164.155896051000127, -0.00107575, -0.0026771, -0.00113374, 0.0258076, 0.292629, 0.16927
1164.1892123560000982, -0.00107367, -0.00270279, -0.00113073, 0.02553, 0.297771, 0.170347
1164.222528689000228, -0.0010744, -0.00269378, -0.00113908, 0.0264536, 0.279475, 0.164967
1164.2558450510000512, -0.00107475, -0.00272253, -0.00112797, 0.0260023, 0.288873, 0.166643
1164.289161384000181, -0.00109217, -0.00273418, -0.0011264, 0.0256707, 0.296224, 0.167849
1164.3224776600002315, -0.00109577, -0.00274277, -0.00111846, 0.0255868, 0.298272, 0.168094
1164.3557940510002027, -0.00110054, -0.00273143, -0.00110766, 0.0254949, 0.300127, 0.168561
1164.3892603840001811, -0.00109201, -0.00271856, -0.0011032, 0.0249374, 0.31131, 0.171239
1164.4225766890001523, -0.00109517, -0.00272334, -0.00110407, 0.0247334, 0.31541, 0.171918
1164.4558930220000548, -0.00111177, -0.0027373, -0.00109751, 0.0245753, 0.318369, 0.172334
1164.4892093510002269, -0.00109054, -0.00275781, -0.00108118, 0.0249583, 0.311152, 0.171551
1164.5225256890000765, -0.00107744, -0.0027776, -0.0010787, 0.0252657, 0.305666, 0.170775
1164.5558420180002486, -0.00106801, -0.00277435, -0.00107201, 0.025974, 0.295506, 0.169934
1164.589158351000151, -0.00105687, -0.00276951, -0.00105502, 0.0266949, 0.286475, 0.168721
1164.6224746560001222, -0.00104271, -0.00277757, -0.00105966, 0.0271099, 0.282378, 0.168183
1164.6557910180001727, -0.00103769, -0.0027793, -0.00106074, 0.0274557, 0.279754, 0.16762
1164.6891073840001809, -0.00103621, -0.00277599, -0.00104393, 0.0278098, 0.277448, 0.166276
1164.7225736560001224, -0.00104139, -0.0027906, -0.00104273, 0.0278088, 0.277371, 0.166902
1164.7558900510000512, -0.0010474, -0.00282593, -0.00103902, 0.0270309, 0.280414, 0.166856
1164.7892063840001811, -0.00105046, -0.00283101, -0.0010296, 0.0267003, 0.281743, 0.165594
1164.8225226890001522, -0.00106427, -0.00286618, -0.0010268, 0.0257698, 0.285322, 0.161942
1164.8558390220000547, -0.00106776, -0.00289796, -0.00102756, 0.0248158, 0.289343, 0.156674
1164.8891553700002532, -0.00108615, -0.00291831, -0.00102594, 0.0239069, 0.292708, 0.15071
1164.9224717220001821, -0.00110621, -0.00294058, -0.00102365, 0.0231068, 0.295444, 0.14464
1164.9557880220002062, -0.00111101, -0.00295209, -0.00101986, 0.0223846, 0.297784, 0.138778
1164.9891043560000981, -0.00111887, -0.00296194, -0.00101656, 0.0214128, 0.300611, 0.130116
1165.022420737000175, -0.00112571, -0.00298145, -0.00101809, 0.0206407, 0.302962, 0.121956
1165.055887051000127, -0.00112279, -0.00297651, -0.00102645, 0.0209484, 0.303718, 0.123692
1165.0892033840002568, -0.00110651, -0.00297018, -0.00101678, 0.0215728, 0.304198, 0.12982
1165.1225196700002016, -0.00108591, -0.0029639, -0.00100796, 0.0219896, 0.306137, 0.132113
1165.1558360510000512, -0.0010584, -0.0029464, -0.000985423, 0.0230261, 0.310088, 0.140451
1165.1891523510000752, -0.00105579, -0.00294748, -0.000978891, 0.0233675, 0.311908, 0.143057
1165.2224686890001522, -0.00104458, -0.0029423, -0.000970791, 0.0236743, 0.313735, 0.144391
1165.2557850510002027, -0.00103233, -0.00293845, -0.000974499, 0.024448, 0.319332, 0.148447
1165.2891013840001051, -0.00102623, -0.0029358, -0.000977076, 0.0250857, 0.324936, 0.151972
1165.3224176840001292, -0.00101486, -0.00293231, -0.000975645, 0.0259564, 0.332868, 0.155446
1165.3557346360000793, -0.000995598, -0.0029315, -0.000978727, 0.0271044, 0.344147, 0.159641
1165.389050356000098, -0.00097842, -0.00294548, -0.000981716, 0.02837, 0.357855, 0.164877
1165.4225166890000764, -0.000973829, -0.00293744, -0.000990668, 0.0296199, 0.371897, 0.169258
1165.4558330170000318, -0.000972808, -0.00294185, -0.000991294, 0.0303228, 0.379848, 0.171474
1165.4891493840002568, -0.000965466, -0.00295376, -0.000990692, 0.0306385, 0.38323, 0.172765
1165.5224657170001592, -0.00096662, -0.00295766, -0.000992419, 0.0303092, 0.379653, 0.172213
1165.5557820510000511, -0.000960047, -0.00295297, -0.000991417, 0.0298154, 0.374739, 0.170038
1165.5890983550000328, -0.000945568, -0.00295063, -0.00099852, 0.0298496, 0.37571, 0.168773
1165.6224146840002049, -0.000943238, -0.00295243, -0.00100887, 0.0301308, 0.37897, 0.168659
1165.6557310220000545, -0.000945982, -0.00294722, -0.00101185, 0.0294599, 0.374147, 0.163949
1165.689047384000105, -0.000931511, -0.00294543, -0.00101497, 0.0294268, 0.374983, 0.161189
1165.7223636840001291, -0.000910305, -0.00293902, -0.00100547, 0.0294506, 0.375845, 0.159121
1165.7558300550001604, -0.000894348, -0.00296685, -0.000981498, 0.0292923, 0.376473, 0.155104
1165.7891463840001052, -0.000894879, -0.0029663, -0.000959624, 0.028881, 0.377266, 0.14944
1165.8224626600001557, -0.000884854, -0.00295748, -0.000943876, 0.0286548, 0.377718, 0.145276
1165.8557790510001269, -0.000876902, -0.00296571, -0.000930779, 0.0289177, 0.375236, 0.150087
1165.8890953840002567, -0.000860033, -0.00297741, -0.000931679, 0.0289557, 0.375385, 0.147612
1165.9224116840000534, -0.000873112, -0.00296807, -0.000936344, 0.0288219, 0.377586, 0.142109
1165.9557280170001832, -0.000915092, -0.00294664, -0.000936955, 0.0291412, 0.375512, 0.147265
1165.9890443550000327, -0.000929242, -0.00295105, -0.00095178, 0.0293405, 0.373334, 0.150573
1166.0223607170000832, -0.000938592, -0.00293757, -0.000956511, 0.0294549, 0.374726, 0.151405
1166.0556770510002025, -0.000950958, -0.0029297, -0.000959893, 0.0298056, 0.371596, 0.154956
1166.0889933510002265, -0.00096837, -0.00294058, -0.000964553, 0.0301381, 0.369741, 0.157089
1166.1224597170000834, -0.000978337, -0.00294492, -0.000965757, 0.0306441, 0.363314, 0.162393
1166.1557760510002026, -0.000981254, -0.00294755, -0.000970799, 0.030884, 0.358012, 0.165188
1166.1890923510002267, -0.000980298, -0.00295902, -0.000976082, 0.0311156, 0.35207, 0.168694
1166.2224086840001291, -0.000978659, -0.0029594, -0.000973367, 0.0314327, 0.345934, 0.171205
1166.2557250510001268, -0.000977199, -0.00296441, -0.000973492, 0.0317109, 0.340236, 0.172774
1166.2890413840002566, -0.000977023, -0.0029682, -0.000959678, 0.032047, 0.332584, 0.175251
1166.322357717000159, -0.000980132, -0.00295522, -0.000954112, 0.0322842, 0.32834, 0.175665
1166.3556740220001302, -0.00098437, -0.00294635, -0.000950128, 0.0327514, 0.31496, 0.178958
1166.3889903550000327, -0.00098356, -0.00295359, -0.000950407, 0.033184, 0.302186, 0.181699
1166.4223067170000832, -0.000984595, -0.00295434, -0.000955864, 0.0336637, 0.288576, 0.184083
1166.4557730510000511, -0.000980702, -0.00297588, -0.000962413, 0.0341353, 0.274403, 0.186975
1166.4890893840001809, -0.000980342, -0.00297798, -0.000961498, 0.0342105, 0.272459, 0.187056
1166.5224057170000833, -0.00100293, -0.00298003, -0.000960509, 0.0337366, 0.287188, 0.183361
1166.5557220170001074, -0.00102742, -0.00298495, -0.000972506, 0.0336168, 0.291173, 0.182208
1166.589038384000105, -0.00103759, -0.00300634, -0.000980326, 0.0337234, 0.290037, 0.181349
1166.6223546890000762, -0.00105106, -0.00300931, -0.000974609, 0.0337356, 0.291344, 0.179654
1166.655671022000206, -0.0010602, -0.00301728, -0.000975405, 0.0336978, 0.294965, 0.177981
1166.6889873510001507, -0.00107171, -0.00302761, -0.000978338, 0.0334942, 0.305475, 0.172362
1166.7223037170001589, -0.00108998, -0.00304023, -0.000984878, 0.0332534, 0.316339, 0.165296
1166.755620017000183, -0.00110382, -0.00307329, -0.00100108, 0.0329784, 0.326798, 0.160063
1166.7889363840001806, -0.00110722, -0.00307525, -0.00100377, 0.032944, 0.329436, 0.158819
1166.8224026890002278, -0.00111708, -0.00306432, -0.00100585, 0.0334358, 0.326745, 0.158351
1166.855719051000051, -0.00112246, -0.00305827, -0.00101152, 0.033716, 0.327114, 0.157302
1166.8890353840001808, -0.00111765, -0.00304905, -0.00101255, 0.033503, 0.331658, 0.153514
1166.9223517170000832, -0.00111041, -0.00303672, -0.00100231, 0.033465, 0.3351, 0.151378
1166.9556680510002025, -0.00112235, -0.00304968, -0.00100831, 0.0333582, 0.334392, 0.15155
1166.9889843550001842, -0.00113923, -0.00305856, -0.00101268, 0.0332701, 0.333945, 0.152119
1167.022300684000129, -0.00114115, -0.00304837, -0.00100974, 0.033488, 0.333517, 0.153537
1167.0556190890001744, -0.00113544, -0.00304199, -0.00100614, 0.0336517, 0.333925, 0.154352
1167.0889333840002564, -0.00114925, -0.00303913, -0.00100983, 0.0333572, 0.332616, 0.153075
1167.1222501170002488, -0.00116122, -0.00304115, -0.00101177, 0.0331172, 0.330567, 0.152711
1167.155716122000058, -0.00114796, -0.00304746, -0.00100424, 0.0330735, 0.330506, 0.15246
1167.1890323840002566, -0.00113968, -0.0030542, -0.000997791, 0.0331677, 0.331103, 0.152611
1167.2223486890002278, -0.00114692, -0.00306586, -0.000995483, 0.0333987, 0.333047, 0.153516
1167.2556650600001831, -0.00114165, -0.0030761, -0.000999365, 0.0338563, 0.338005, 0.153742
1167.2889813550000326, -0.00112656, -0.00309258, -0.00100701, 0.0345345, 0.345466, 0.152666
1167.3222977220000303, -0.00111657, -0.00310345, -0.00103047, 0.0350293, 0.350897, 0.151276
1167.3556140310001865, -0.00110902, -0.00310282, -0.00104072, 0.0351792, 0.352917, 0.149876
1167.388930350000237, -0.00109976, -0.00311142, -0.00105122, 0.0358586, 0.360871, 0.147566
1167.4222467170002346, -0.0010911, -0.00311779, -0.00104563, 0.0361919, 0.364476, 0.146013
1167.4555630170000313, -0.0010807, -0.00311693, -0.00104671, 0.0361807, 0.364277, 0.145293
1167.4888793550001083, -0.00108132, -0.00311996, -0.00105436, 0.0366773, 0.369711, 0.143686
1167.5223457170002348, -0.00107737, -0.00311145, -0.00105907, 0.0373189, 0.377893, 0.139464
1167.5556620500001372, -0.0010789, -0.00311315, -0.00106738, 0.0377257, 0.381487, 0.136888
1167.5889783600000555, -0.00108036, -0.00311315, -0.00106829, 0.0378933, 0.383531, 0.135338
1167.6222946890002277, -0.00108271, -0.00310189, -0.00107643, 0.038674, 0.393281, 0.13087
1167.6556110500000614, -0.00107807, -0.00309668, -0.00108, 0.0390767, 0.398283, 0.127569
1167.6889273500000854, -0.00107582, -0.00308672, -0.00108142, 0.0397118, 0.408005, 0.123405
1167.7222436840002047, -0.00108031, -0.00307743, -0.00108068, 0.0400706, 0.411692, 0.121739
1167.7555600220000542, -0.00108646, -0.00307383, -0.00108491, 0.0406381, 0.417318, 0.118372
1167.7888763220000783, -0.00109164, -0.00306517, -0.00110044, 0.0413215, 0.42391, 0.115046
1167.8221927170002346, -0.00109885, -0.00305362, -0.00111186, 0.0421509, 0.42912, 0.112066
1167.855659050000213, -0.00110009, -0.00303496, -0.00111412, 0.0426119, 0.431487, 0.110175
1167.8889753840001049, -0.00108877, -0.00302471, -0.00112186, 0.0425227, 0.434302, 0.109124
1167.922291684000129, -0.00108535, -0.00300592, -0.00112863, 0.0427291, 0.435703, 0.108843
1167.9556080500001372, -0.00110978, -0.00296283, -0.00112077, 0.0427202, 0.437472, 0.109305
1167.9889243840002564, -0.00114005, -0.00296267, -0.00113362, 0.0426233, 0.43905, 0.108791
1168.0222406880002382, -0.00113412, -0.00298224, -0.00115761, 0.0426927, 0.438542, 0.108873
1168.0555581790001725, -0.001116, -0.00298854, -0.00116763, 0.0427066, 0.438655, 0.109169
1168.0888733500000853, -0.0011138, -0.00299822, -0.00117218, 0.0425331, 0.444305, 0.107275
1168.1221896880001623, -0.00111622, -0.00298605, -0.00116964, 0.0425589, 0.443235, 0.107552
1168.155506017000107, -0.00112751, -0.00298199, -0.00116248, 0.0425644, 0.445115, 0.105825
1168.1889723840001807, -0.00112805, -0.00300402, -0.0011669, 0.0425341, 0.453047, 0.101203
1168.2222886880001624, -0.00112834, -0.00300423, -0.00116306, 0.0425523, 0.454919, 0.0996981
1168.2556050170001072, -0.0011233, -0.0030035, -0.00115242, 0.0425615, 0.460362, 0.0955356
1168.2889213270002529, -0.00111371, -0.00300154, -0.00114205, 0.0426726, 0.465473, 0.0898142
1168.3222377170002346, -0.00111359, -0.00299736, -0.00114392, 0.0426717, 0.46985, 0.0863863
1168.3555540220002058, -0.00112141, -0.00299545, -0.00114563, 0.0426334, 0.477281, 0.0799681
1168.3888703840002563, -0.0011357, -0.00300003, -0.00115021, 0.0429363, 0.485046, 0.0735912
1168.4221866880002381, -0.00115024, -0.00299854, -0.00114561, 0.0431524, 0.4878, 0.0710462
1168.4555030220001299, -0.00116898, -0.00297214, -0.00113504, 0.0434685, 0.479683, 0.0748384
1168.4888193840001804, -0.00117924, -0.00296868, -0.00113406, 0.0433598, 0.486126, 0.0702561
1168.5221357170000829, -0.00117714, -0.00294268, -0.00112289, 0.043247, 0.49187, 0.0658083
1168.5556020220001301, -0.00116504, -0.00294535, -0.00111643, 0.0436016, 0.485811, 0.0699285
1168.5889183550000325, -0.00116488, -0.0029439, -0.00111608, 0.0440769, 0.478353, 0.0768859
1168.6222346880001624, -0.00116345, -0.00294405, -0.00111008, 0.0443059, 0.476388, 0.0790209
1168.6555510500002129, -0.00115684, -0.00295678, -0.00109925, 0.0445719, 0.475519, 0.0810543
1168.688867355000184, -0.00115759, -0.00296113, -0.00111108, 0.0445806, 0.474907, 0.0824563
1168.7221837170002345, -0.00115571, -0.00295768, -0.00110985, 0.0444689, 0.474525, 0.0826267
1168.7555000220002057, -0.0011388, -0.00295063, -0.00110478, 0.0442868, 0.473935, 0.0833008
1168.788816350000161, -0.00111335, -0.0029427, -0.00109832, 0.0441311, 0.473282, 0.0841142
1168.822132688000238, -0.00109888, -0.00294248, -0.00110274, 0.0442671, 0.474243, 0.0836872
1168.8554490220001298, -0.00109035, -0.00294336, -0.00110002, 0.0442107, 0.473787, 0.0841
1168.8889153840002564, -0.00108056, -0.00294705, -0.00110352, 0.044452, 0.475527, 0.0827745
1168.9222316840000531, -0.00107543, -0.00293676, -0.00111245, 0.0448036, 0.478534, 0.0797125
1168.9555480500000613, -0.00106583, -0.00291771, -0.00112746, 0.0451923, 0.481923, 0.075612
1168.9888643840001805, -0.00105219, -0.00290198, -0.00112879, 0.0455035, 0.484699, 0.0726903
1169.022180660000231, -0.001042, -0.00289418, -0.00112538, 0.0456318, 0.485835, 0.0717331
1169.0554970500002128, -0.00102879, -0.00287824, -0.00112516, 0.0455311, 0.486429, 0.0711081
1169.0888133840001046, -0.00101898, -0.00286513, -0.00112358, 0.0457361, 0.488991, 0.0679429
1169.1221296840001287, -0.0010046, -0.00285471, -0.00112104, 0.0459441, 0.491007, 0.066031
1169.1554460500001369, -0.00100417, -0.00284994, -0.00111557, 0.046188, 0.492487, 0.0641498
1169.1887643450002088, -0.00100281, -0.00283565, -0.00111764, 0.0465517, 0.494401, 0.061584
1169.2220786840000528, -0.00100112, -0.00282492, -0.00112694, 0.0467745, 0.496475, 0.0585015
1169.2555450220002058, -0.000996803, -0.00281386, -0.00113369, 0.0471012, 0.498078, 0.0555146
1169.2888613690001876, -0.000993971, -0.00279741, -0.001138, 0.0475125, 0.499982, 0.053001
1169.3221777170001587, -0.000990746, -0.00277899, -0.00114083, 0.0482484, 0.501748, 0.0496528
1169.3554939930002092, -0.000984469, -0.00277056, -0.00115121, 0.0485889, 0.503504, 0.0481541
1169.3888103600002069, -0.000970603, -0.00278327, -0.00115094, 0.0482843, 0.505581, 0.0490447
1169.4221267170000829, -0.000960629, -0.00280015, -0.00113833, 0.0479771, 0.507567, 0.0495572
1169.4554430170001069, -0.000957352, -0.00279631, -0.00113118, 0.0477663, 0.509026, 0.0497269
1169.4887593830001151, -0.000961163, -0.00279115, -0.00112822, 0.0478825, 0.508571, 0.0499436
1169.5220757170002344, -0.000973668, -0.00277477, -0.00112476, 0.048092, 0.506672, 0.0506255
1169.5553920500001368, -0.000987131, -0.00276734, -0.00111966, 0.0481407, 0.506058, 0.0509384
1169.588858326000036, -0.00100107, -0.00277062, -0.00110553, 0.0479301, 0.510646, 0.048692
1169.6221746880000865, -0.00100116, -0.00277726, -0.00112433, 0.0477581, 0.514295, 0.0462804
1169.655491050000137, -0.0010072, -0.00278085, -0.00112064, 0.047742, 0.515442, 0.0451736
1169.688807350000161, -0.00100741, -0.00277867, -0.00110429, 0.0477131, 0.51866, 0.0417525
1169.7221236550001322, -0.00101218, -0.00277149, -0.00109715, 0.0476578, 0.521129, 0.0392872
1169.7554400170001827, -0.00101972, -0.00278626, -0.00110226, 0.0476775, 0.524311, 0.0354983
1169.7887563550000323, -0.00103335, -0.00279216, -0.0010946, 0.0476499, 0.529388, 0.0293296
1169.8220728170001621, -0.00103486, -0.00279562, -0.0010919, 0.0475289, 0.535081, 0.0233787
1169.8553890500002126, -0.00103845, -0.00278968, -0.00108241, 0.0475241, 0.538052, 0.0195066
1169.8887053550001838, -0.00105114, -0.00277647, -0.00107673, 0.0473229, 0.542203, 0.0137572
1169.9220217170002343, -0.00104224, -0.00276564, -0.00107614, 0.0469953, 0.54632, 0.00899457
1169.9554880500002128, -0.0010433, -0.00275823, -0.00107813, 0.0466429, 0.549429, 0.00488495
1169.9888043550001839, -0.00105749, -0.00274926, -0.00107637, 0.0464202, 0.550085, 0.00303011
1170.0221206880000864, -0.00106509, -0.0027431, -0.00107578, 0.0464118, 0.550354, 0.00312036
1170.0554372170001898, -0.00105704, -0.00274838, -0.00107333, 0.0468273, 0.552489, 0.00497302
1170.0887533830000393, -0.0010521, -0.00274875, -0.00106943, 0.0472034, 0.554779, 0.00586034
1170.1220696880002379, -0.0010525, -0.00274938, -0.0010707, 0.0472838, 0.55537, 0.00588637
1170.155386050000061, -0.00104144, -0.00275265, -0.00107423, 0.0474866, 0.557136, 0.00587713
1170.1887023830001908, -0.00103395, -0.00274448, -0.0010869, 0.0473764, 0.55645, 0.00601584
1170.2220187170000827, -0.00103435, -0.00274315, -0.00109572, 0.0477153, 0.559285, 0.00486499
1170.2553350500002125, -0.00102569, -0.00273913, -0.00110053, 0.0474236, 0.557136, 0.00577391
1170.2888013310000588, -0.00101749, -0.0027365, -0.00110513, 0.0471286, 0.554891, 0.007029
1170.3221177170000828, -0.001017, -0.00273794, -0.00110746, 0.0471242, 0.554818, 0.00702996
1170.3554340210000646, -0.00101876, -0.00273261, -0.00111923, 0.0474336, 0.556712, 0.00462912
1170.3887503830001151, -0.00101735, -0.00274002, -0.00111717, 0.0477767, 0.5585, 0.00296558
1170.4220667170002343, -0.001017, -0.00274849, -0.00111572, 0.0480289, 0.559857, 0.00143708
1170.4553830210002161, -0.00101804, -0.0027487, -0.00111833, 0.048209, 0.560852, -7.29614e-05
1170.4886993830000392, -0.00102145, -0.00274051, -0.00112166, 0.0484324, 0.562119, -0.00267347
1170.5220157170001585, -0.00102401, -0.00273679, -0.00112766, 0.0488938, 0.565343, -0.00710278
1170.5553320500000609, -0.00101927, -0.00273478, -0.00112699, 0.0492115, 0.569001, -0.00982803
1170.5886483830001907, -0.00102196, -0.00273938, -0.00112902, 0.0495724, 0.569959, -0.0147242
1170.6219647170000826, -0.001023, -0.00274004, -0.00113531, 0.049901, 0.571101, -0.0180347
1170.6554310500000611, -0.00102541, -0.00274034, -0.00114074, 0.0502695, 0.57232, -0.0207374
1170.6887473500000851, -0.00102817, -0.00273382, -0.00114214, 0.0506481, 0.573783, -0.0237179
1170.7220637170000828, -0.00102846, -0.00272342, -0.00114202, 0.0511571, 0.575738, -0.0279542
1170.7553800170001068, -0.00102478, -0.00270875, -0.00113507, 0.0516481, 0.577805, -0.0324176
1170.788696383000115, -0.00101605, -0.00268008, -0.00113394, 0.0520719, 0.580284, -0.0354129
1170.8220126830001391, -0.00101074, -0.00263631, -0.00112051, 0.0524214, 0.580623, -0.036731
1170.8553290170000309, -0.00099884, -0.00261085, -0.0011224, 0.0525075, 0.580573, -0.0370211
1170.8886453830000391, -0.00101921, -0.00257978, -0.00112282, 0.0525116, 0.580495, -0.0368782
1170.9219617170001584, -0.00104248, -0.00258355, -0.00113296, 0.0523274, 0.583719, -0.0364323
1170.9552780500000608, -0.00105064, -0.00257942, -0.00114315, 0.0520525, 0.588735, -0.0366931
1170.9887443500001609, -0.00104827, -0.00256976, -0.00114908, 0.0518645, 0.592822, -0.0371502
1171.0220607170001585, -0.00105212, -0.0025567, -0.00117071, 0.0518511, 0.593665, -0.0381492
1171.0553770170001826, -0.00106411, -0.00254468, -0.00118612, 0.051647, 0.598714, -0.0406768
1171.088693350000085, -0.00107306, -0.00253671, -0.00118983, 0.0514634, 0.602788, -0.0428813
1171.1220097120001356, -0.00108037, -0.00253359, -0.0012004, 0.051356, 0.605265, -0.0448204
1171.1553260210000644, -0.00109517, -0.00252968, -0.00121225, 0.0511238, 0.609729, -0.0482649
1171.1886423500002365, -0.00110339, -0.00251622, -0.00121025, 0.0508621, 0.61386, -0.0521285
1171.2219586970002183, -0.0011174, -0.00251311, -0.00122034, 0.0506001, 0.617094, -0.0562633
1171.2552750500001366, -0.00112747, -0.00251006, -0.00122476, 0.0502564, 0.619487, -0.0608106
1171.2885913550001078, -0.00114141, -0.00250441, -0.00123371, 0.0499567, 0.621073, -0.0644332
1171.3220577400002185, -0.00116057, -0.00251159, -0.00124662, 0.0498311, 0.622303, -0.0665548
1171.3553740500001368, -0.00116265, -0.00251235, -0.00124594, 0.0498383, 0.622964, -0.0670723
1171.3886903830000392, -0.00116953, -0.00251061, -0.00124426, 0.0496758, 0.622957, -0.0685858
1171.4220067070000368, -0.0011694, -0.00252081, -0.00123722, 0.049734, 0.623678, -0.0681763
1171.4553230500000609, -0.00116603, -0.00252833, -0.00122476, 0.0500264, 0.626258, -0.0672472
1171.4886393210001643, -0.00117074, -0.00253211, -0.00121928, 0.0501464, 0.627643, -0.0670903
1171.5219556550000561, -0.00116294, -0.00253333, -0.00120639, 0.0502763, 0.629193, -0.0670187
1171.5552720210000643, -0.00115667, -0.00253643, -0.00120078, 0.0505677, 0.632279, -0.0668213
1171.58858837400021, -0.0011503, -0.00254672, -0.00118933, 0.0510634, 0.637457, -0.0670996
1171.6219046590001653, -0.00115278, -0.00253686, -0.00117893, 0.0513952, 0.641304, -0.0678635
1171.6552210500001365, -0.00114939, -0.00252857, -0.00117942, 0.0512405, 0.639443, -0.0675098
1171.688687383000115, -0.00114711, -0.0025211, -0.00118809, 0.0514254, 0.641803, -0.0683261
1171.7220037160002448, -0.00114647, -0.00252603, -0.00118804, 0.051759, 0.646148, -0.0695625
1171.7553200500001367, -0.00114571, -0.00251961, -0.00120022, 0.0519955, 0.649294, -0.07089
1171.7886363500001607, -0.00114242, -0.00250386, -0.00122321, 0.0523729, 0.654318, -0.0733785
1171.8219527160001689, -0.0011431, -0.00250161, -0.0012262, 0.0524858, 0.655779, -0.0740731
1171.8552690500000608, -0.00114262, -0.00249346, -0.00121934, 0.052577, 0.657078, -0.075013
1171.8885853830001906, -0.00114608, -0.00249619, -0.00122382, 0.053054, 0.662604, -0.0775932
1171.9219016880001618, -0.0011458, -0.00249637, -0.00122866, 0.0532009, 0.664199, -0.07845
1171.9552180160001171, -0.00114656, -0.00248693, -0.00122146, 0.0535299, 0.668163, -0.0810901
1171.9885343830001148, -0.00115649, -0.00248392, -0.00122367, 0.0545037, 0.677953, -0.0864486
1172.0220007210000404, -0.00116658, -0.00248451, -0.0012336, 0.0549812, 0.682334, -0.0891964
1172.0553170500002125, -0.00117206, -0.00248366, -0.00123981, 0.0553588, 0.685483, -0.0914188
1172.0886333830001149, -0.00117951, -0.00247897, -0.00123102, 0.0559335, 0.689354, -0.0941588
1172.1219497160002447, -0.00118304, -0.00247482, -0.00123417, 0.0564232, 0.69184, -0.0963103
1172.1552660210002159, -0.00117843, -0.00246921, -0.00123237, 0.0567007, 0.692871, -0.0975369
1172.188582383000039, -0.00117035, -0.00247126, -0.00124777, 0.0565851, 0.692569, -0.0972316
1172.2218987160001689, -0.00119064, -0.00247441, -0.00125199, 0.0566935, 0.692213, -0.0972445
1172.2552150160001929, -0.00121108, -0.00247499, -0.00126536, 0.0567262, 0.691669, -0.0971371
1172.2885313930000848, -0.00122637, -0.00248614, -0.00125416, 0.0566283, 0.693292, -0.0980206
1172.3218476830002146, -0.00123828, -0.00251209, -0.00124573, 0.0564575, 0.696822, -0.0997494
1172.3551640500002122, -0.00123, -0.00251537, -0.00124822, 0.0564222, 0.697956, -0.10068
1172.3886303830001907, -0.0012115, -0.00250465, -0.00124041, 0.0563409, 0.702088, -0.10391
1172.4219466880001619, -0.001229, -0.00253297, -0.00123904, 0.0563029, 0.709954, -0.110024
1172.4552630160001172, -0.00123541, -0.00254785, -0.00123453, 0.0562418, 0.713735, -0.113393
1172.4885793830001148, -0.00123013, -0.00254382, -0.00123674, 0.0561971, 0.71602, -0.116194
1172.5218956640001124, -0.00122455, -0.0025258, -0.00123679, 0.0561915, 0.719313, -0.120602
1172.5552120160000413, -0.00124584, -0.00251658, -0.00124718, 0.0561942, 0.723258, -0.12572
1172.588528383000039, -0.00125298, -0.00251578, -0.00125793, 0.0561992, 0.726935, -0.130746
1172.6218446880002375, -0.00125911, -0.00250337, -0.0012623, 0.0561576, 0.730067, -0.136086
1172.6551610500000606, -0.00126835, -0.00249708, -0.00125815, 0.0561397, 0.733154, -0.142067
1172.6884773500000847, -0.00127826, -0.0025136, -0.00127284, 0.0561905, 0.735154, -0.144324
1172.7219437160001689, -0.00127704, -0.00251463, -0.00126557, 0.0562443, 0.735641, -0.144929
1172.755260016000193, -0.0012858, -0.00250813, -0.00125128, 0.056378, 0.735098, -0.141704
1172.7885763830001906, -0.00130234, -0.00250652, -0.00124411, 0.0565702, 0.734531, -0.135995
1172.8218926880001618, -0.00131132, -0.00249282, -0.00124626, 0.0565682, 0.734607, -0.136294
1172.8552089880001859, -0.00132282, -0.00249902, -0.00125347, 0.0565424, 0.73428, -0.135542
1172.8885253540001941, -0.00132228, -0.00249903, -0.00126497, 0.0564884, 0.733886, -0.135014
1172.9218417160002446, -0.00131346, -0.00249721, -0.00127381, 0.0563969, 0.733146, -0.135573
1172.9551580160000412, -0.00131693, -0.00249955, -0.00127788, 0.0562896, 0.731686, -0.135358
1172.9884743970001182, -0.00131381, -0.00249453, -0.00126629, 0.0561094, 0.729551, -0.135994
1173.0217906830000629, -0.00131128, -0.00249169, -0.00126372, 0.0560947, 0.729372, -0.136046
1173.0551070160001927, -0.00130545, -0.00249815, -0.00127419, 0.0563967, 0.732948, -0.134611
1173.088573383000039, -0.00129932, -0.00248987, -0.00128446, 0.056898, 0.73867, -0.134682
1173.1218897160001688, -0.00129396, -0.00248169, -0.00129367, 0.0571983, 0.741992, -0.13525
1173.15520602100014, -0.00129043, -0.00248088, -0.00129961, 0.0573067, 0.743173, -0.135119
1173.1885223540000425, -0.00129011, -0.00246968, -0.00129885, 0.0575562, 0.745692, -0.136981
1173.2218386830002146, -0.0012805, -0.00245812, -0.00129819, 0.0574346, 0.74469, -0.137484
1173.2551550500002122, -0.00127288, -0.0024427, -0.00129917, 0.0573202, 0.743948, -0.137868
1173.288471354000194, -0.00126955, -0.00243251, -0.00129494, 0.0575359, 0.745948, -0.139662
1173.3217877160002445, -0.0012677, -0.00242548, -0.00128645, 0.0580015, 0.749659, -0.143493
1173.3551040210002157, -0.00127026, -0.00242442, -0.00128611, 0.0583313, 0.751946, -0.146629
1173.3884203830000388, -0.00127469, -0.00242587, -0.00128713, 0.0588198, 0.755682, -0.150815
1173.4218867160002446, -0.00127624, -0.00242438, -0.00128735, 0.0591979, 0.758628, -0.154248
1173.4552029920000678, -0.0012766, -0.00242228, -0.00128953, 0.0593351, 0.758772, -0.155767
1173.4885193830000389, -0.00128237, -0.00242132, -0.00128481, 0.059641, 0.760691, -0.15825
1173.5218357160001688, -0.00128664, -0.00241317, -0.00128518, 0.0600094, 0.763711, -0.160294
1173.5551520500000606, -0.00127123, -0.00241692, -0.00128619, 0.0599701, 0.766811, -0.159609
1173.5884683540000424, -0.00127365, -0.00241073, -0.00128464, 0.0598467, 0.767023, -0.159105
1173.6217851970002357, -0.00128454, -0.00240744, -0.00129617, 0.0596759, 0.768696, -0.157688
1173.6551010350001434, -0.00132518, -0.00241279, -0.00131331, 0.0593939, 0.771438, -0.155664
1173.6884173210000881, -0.00135348, -0.0024312, -0.00132226, 0.0592154, 0.775447, -0.15467
1173.7217336830001386, -0.00135409, -0.00243607, -0.00131819, 0.0590893, 0.778623, -0.154439
1173.7550500490001468, -0.00137965, -0.00244796, -0.00132799, 0.0590043, 0.781677, -0.155102
1173.7885163830001147, -0.00138025, -0.00245679, -0.00132463, 0.0588673, 0.787223, -0.156229
1173.8218326880000859, -0.00138324, -0.0024633, -0.00131868, 0.0588284, 0.789471, -0.156914
1173.855149049000147, -0.00138844, -0.00247081, -0.00132799, 0.0588116, 0.792409, -0.158147
1173.8884653540001182, -0.00138374, -0.0024734, -0.00132412, 0.0587977, 0.795303, -0.159879
1173.9217821690001529, -0.00138245, -0.00247547, -0.00132253, 0.0588364, 0.797037, -0.161632
1173.9550980160001927, -0.00137652, -0.00247829, -0.00132063, 0.0588528, 0.799782, -0.163885
1173.9884143830001904, -0.0013846, -0.0024788, -0.00131687, 0.058886, 0.802691, -0.166677
1174.0217356390000987, -0.00137633, -0.00247216, -0.00130467, 0.0589222, 0.805493, -0.16973
1174.055063501000177, -0.00137508, -0.00247323, -0.00129951, 0.0590085, 0.807019, -0.171847
1174.0883912670001337, -0.00138451, -0.00247645, -0.00130208, 0.0590052, 0.81124, -0.174227
1174.1217190890001802, -0.00140039, -0.00248966, -0.00131614, 0.0589213, 0.817472, -0.176746
1174.1551969350000491, -0.00141356, -0.0024906, -0.0013317, 0.0586636, 0.821971, -0.178059
1174.1885247290001644, -0.00142196, -0.00248543, -0.00134616, 0.0583959, 0.824277, -0.177678
1174.2218524900001739, -0.00142185, -0.00248336, -0.00134991, 0.0582794, 0.824547, -0.177265
1174.2551802890002364, -0.00141973, -0.00248542, -0.00135439, 0.0582311, 0.824621, -0.176819
1174.2885080830001243, -0.00140805, -0.00249009, -0.00135718, 0.0584272, 0.825589, -0.177304
1174.3218358730000546, -0.00140606, -0.00249263, -0.00135507, 0.0583367, 0.82548, -0.176792
1174.3551637000000483, -0.00139986, -0.00249183, -0.00135391, 0.0581853, 0.824752, -0.175969
1174.3884914610000578, -0.00138304, -0.00248895, -0.00135815, 0.0582296, 0.825192, -0.176407
1174.4218192880000515, -0.00137851, -0.00248393, -0.0013617, 0.0584332, 0.826354, -0.178118
1174.4551470820001668, -0.00137369, -0.00248486, -0.00136168, 0.0584936, 0.826772, -0.178871
1174.4886248950001573, -0.00137174, -0.00248091, -0.00136138, 0.0586562, 0.827727, -0.180873
1174.5219526890000452, -0.00137242, -0.00248124, -0.00135627, 0.0586838, 0.827884, -0.180888
1174.5552805170002557, -0.00137403, -0.00248005, -0.0013535, 0.0586659, 0.82804, -0.180957
1174.5886083110001437, -0.00137607, -0.00247953, -0.00134655, 0.0588656, 0.829105, -0.183582
1174.6219363530001374, -0.00137954, -0.00247045, -0.0013507, 0.0589959, 0.830645, -0.186239
1174.6552638660000412, -0.00138093, -0.00246898, -0.00135377, 0.0591755, 0.830932, -0.188888
1174.6885916930000349, -0.00137909, -0.00246414, -0.00135736, 0.059196, 0.831478, -0.189124
1174.7219194870001502, -0.00138032, -0.00246624, -0.00135504, 0.0595464, 0.832438, -0.192902
1174.7552472810000381, -0.0013803, -0.00246704, -0.0013533, 0.0595321, 0.831848, -0.192324
1174.7885750470002222, -0.00138084, -0.00245759, -0.00135158, 0.0596579, 0.833159, -0.194144
1174.8219028700000308, -0.00137878, -0.00244591, -0.00135079, 0.0600214, 0.834379, -0.197775
1174.8553806870002063, -0.00137794, -0.00243187, -0.0013449, 0.0600794, 0.836628, -0.197821
1174.8887084480002159, -0.00137633, -0.00243608, -0.00134452, 0.0600307, 0.836283, -0.197597
1174.9220362700000351, -0.00136833, -0.00244479, -0.00135791, 0.0596581, 0.838661, -0.19291
1174.9553640690000975, -0.00135917, -0.00241185, -0.00135869, 0.0598283, 0.841774, -0.19378
1174.9886918920001335, -0.00136191, -0.00241472, -0.00136779, 0.060152, 0.836781, -0.197662
1175.022015096000132, -0.0013639, -0.00240388, -0.00136736, 0.0600911, 0.839169, -0.196633
1175.0553310170000714, -0.00135423, -0.00240403, -0.00136615, 0.0599053, 0.843532, -0.194289
1175.0886473830000796, -0.00134951, -0.00239934, -0.00136037, 0.0598384, 0.846807, -0.193084
1175.1219637160002094, -0.00134746, -0.00239543, -0.00135446, 0.0597707, 0.849788, -0.191979
1175.155430054000135, -0.00134795, -0.00242611, -0.0013496, 0.0595445, 0.856583, -0.189582
1175.1887463490002119, -0.00134687, -0.00243242, -0.00135072, 0.0593777, 0.861702, -0.187603
1175.2220627160002095, -0.0013438, -0.00242783, -0.00135926, 0.0593545, 0.862413, -0.187337
1175.2553790210001807, -0.00134786, -0.00242988, -0.00136843, 0.0593099, 0.863898, -0.186914
1175.2886953210002048, -0.00135489, -0.00245625, -0.00137515, 0.0592828, 0.864351, -0.186342
1175.3220117160001337, -0.00136478, -0.00246248, -0.00138284, 0.0593573, 0.861375, -0.187323
1175.3553280160001577, -0.00138917, -0.00247704, -0.00138736, 0.0592912, 0.863833, -0.186521
1175.3886443490000602, -0.00139063, -0.00247234, -0.00136359, 0.0592123, 0.8678, -0.185516
1175.4219607160000578, -0.00139499, -0.00248023, -0.00134852, 0.0592548, 0.866065, -0.186353
1175.4552770250002141, -0.00141278, -0.00249884, -0.00134694, 0.0592333, 0.868473, -0.186
1175.4885933590001059, -0.00140814, -0.00251047, -0.00135557, 0.0592693, 0.866948, -0.186608
1175.5220596830001796, -0.00140917, -0.00252164, -0.00135105, 0.0593565, 0.863395, -0.188109
1175.5553760490001878, -0.00141885, -0.0025359, -0.00135721, 0.0593703, 0.86503, -0.188669
1175.5886923440000373, -0.00141543, -0.00254139, -0.00134128, 0.0594348, 0.863337, -0.190375
1175.6220086830001037, -0.00142109, -0.00254433, -0.00133216, 0.0595133, 0.86267, -0.192029
1175.6553250210001806, -0.00142088, -0.00256674, -0.0013295, 0.059423, 0.868496, -0.190191
1175.6886413830002311, -0.00140714, -0.00260033, -0.00132627, 0.059312, 0.877307, -0.187878
1175.7219576870002129, -0.00140708, -0.00262071, -0.0013511, 0.0594178, 0.872287, -0.188928
1175.7552740160001576, -0.00142384, -0.0026161, -0.00134608, 0.0593341, 0.874008, -0.187687
1175.7885903830001553, -0.00140459, -0.00263024, -0.00134758, 0.0592115, 0.880288, -0.18566
1175.821906687000137, -0.00141123, -0.00263973, -0.00134603, 0.0593462, 0.875379, -0.187039
1175.8553730490000362, -0.00141895, -0.0026547, -0.00134223, 0.0593802, 0.87529, -0.187033
1175.8886893830001554, -0.00141725, -0.00263156, -0.00133707, 0.0595595, 0.866734, -0.188954
1175.9220057160000579, -0.00135539, -0.00247568, -0.0013015, 0.0597366, 0.852503, -0.191975
1175.9553220210002564, -0.00135412, -0.00246926, -0.00129833, 0.0597561, 0.85135, -0.1922
1175.9886383820000901, -0.00137564, -0.00246069, -0.00129907, 0.059699, 0.858035, -0.191357
1176.0219547160002094, -0.00140088, -0.00242677, -0.00129789, 0.0596662, 0.865859, -0.190712
1176.0552709870000854, -0.00137928, -0.00237666, -0.00129606, 0.059655, 0.876569, -0.190503
1176.0885873820002416, -0.00137051, -0.00238994, -0.00128763, 0.0596574, 0.874261, -0.190506
1176.1219037160001335, -0.00137294, -0.0024153, -0.00128821, 0.0596345, 0.866769, -0.190208
1176.1552233540000998, -0.00135781, -0.00242989, -0.00127738, 0.0596598, 0.868809, -0.19077
1176.1885363820001658, -0.00136606, -0.00238849, -0.00127045, 0.0597111, 0.879747, -0.191457
1176.2220027160001337, -0.00136192, -0.00235966, -0.00126294, 0.059724, 0.883517, -0.191938
1176.255318987000237, -0.00136137, -0.00235129, -0.00126505, 0.0597395, 0.885833, -0.192211
1176.288635387000113, -0.00133024, -0.00235339, -0.00127176, 0.0596857, 0.872522, -0.189585
1176.3219517160000578, -0.00128844, -0.00233744, -0.0012657, 0.0596515, 0.864414, -0.188519
1176.3552680490001876, -0.0013079, -0.00231951, -0.00125817, 0.0596861, 0.875626, -0.190341
1176.3885843970001588, -0.00130927, -0.00223825, -0.00124179, 0.0596971, 0.890964, -0.193289
1176.4219006870000612, -0.00130278, -0.00218308, -0.00122681, 0.0596943, 0.898202, -0.19483
1176.4552170210001805, -0.00130614, -0.0021495, -0.00122185, 0.0596906, 0.902203, -0.195712
1176.4885333540000829, -0.00132184, -0.00214232, -0.00121981, 0.0596896, 0.903791, -0.196039
1176.5218496590000541, -0.00135293, -0.00215518, -0.00122602, 0.0596963, 0.901078, -0.195325
1176.5553160160002335, -0.00138443, -0.00219107, -0.00123291, 0.0597176, 0.895262, -0.193892
1176.5886323490001359, -0.00140152, -0.00222684, -0.00123295, 0.0597246, 0.894507, -0.193783
1176.62194869200016, -0.00142365, -0.00225677, -0.00123185, 0.0597138, 0.896287, -0.194231
1176.655265049000036, -0.00144646, -0.00223251, -0.00122845, 0.0596315, 0.903721, -0.195998
1176.6885813820001658, -0.00146912, -0.00214342, -0.001203, 0.0594843, 0.913774, -0.198738
1176.7218977160000577, -0.00147037, -0.00214115, -0.00120041, 0.0594623, 0.914809, -0.199131
1176.7552139870001611, -0.00147603, -0.0021396, -0.00119928, 0.0595075, 0.9128, -0.198471
1176.7885303490002116, -0.00148461, -0.00213791, -0.00120686, 0.0595375, 0.910939, -0.197573
1176.8218466870000611, -0.00149802, -0.00214448, -0.00120952, 0.0595662, 0.909166, -0.196964
1176.855163020000191, -0.00151101, -0.00211615, -0.00121334, 0.0593862, 0.916913, -0.199017
1176.8884793820002415, -0.00151055, -0.00209624, -0.00122679, 0.0592153, 0.924561, -0.200917
1176.9219457160002094, -0.00151318, -0.00211762, -0.00122679, 0.0592496, 0.922887, -0.200679
1176.9552620490001118, -0.0014905, -0.00212088, -0.00122466, 0.0592027, 0.925168, -0.20116
1176.9885783820002416, -0.00145803, -0.00212149, -0.00122635, 0.0591531, 0.927591, -0.201535
1177.0218946870002128, -0.0014342, -0.00210578, -0.00123561, 0.059047, 0.932187, -0.201771
1177.0552110160001575, -0.0014011, -0.00211993, -0.00123769, 0.0590559, 0.931877, -0.201793
1177.08852734900006, -0.0013642, -0.00211074, -0.00124643, 0.0589991, 0.933961, -0.201735
1177.1218436870001369, -0.0013254, -0.00211411, -0.0012561, 0.0589768, 0.934754, -0.201705
1177.1551600200000394, -0.00127504, -0.00212209, -0.00126393, 0.0589444, 0.935851, -0.201574
1177.1884763820000899, -0.00124057, -0.0021274, -0.00127438, 0.0589147, 0.936873, -0.201436
1177.2217927160002091, -0.00121843, -0.00214288, -0.00128136, 0.0589098, 0.937063, -0.201422
1177.2552589920001083, -0.00119364, -0.00214647, -0.00129213, 0.0588819, 0.938066, -0.201203
1177.2885753490002116, -0.00117371, -0.00216725, -0.00129682, 0.0588741, 0.938252, -0.201049
1177.3218916870000612, -0.00115194, -0.00216856, -0.00130017, 0.0588295, 0.939937, -0.200514
1177.3552080490001117, -0.00110417, -0.00218612, -0.00130757, 0.0588271, 0.940076, -0.20046
1177.3885243540000829, -0.00104443, -0.00219873, -0.00132124, 0.0588064, 0.940995, -0.200188
1177.4218407160001334, -0.00101419, -0.00221609, -0.00133339, 0.0588, 0.941228, -0.200126
1177.4551570200001152, -0.000965328, -0.00223622, -0.00134336, 0.0588022, 0.941196, -0.200164
1177.4884733540002344, -0.000922397, -0.0022636, -0.00134879, 0.0588009, 0.941254, -0.200154
1177.5217897160000575, -0.000872999, -0.00230767, -0.00135825, 0.0588008, 0.941273, -0.200164
1177.5551060160000816, -0.000813607, -0.00234196, -0.00135913, 0.058801, 0.941325, -0.200189
1177.5885723490000601, -0.00075822, -0.00237456, -0.00136891, 0.0587823, 0.94197, -0.199945
1177.6218886820001899, -0.000704868, -0.00241809, -0.00137154, 0.0587568, 0.94284, -0.199603
1177.6552050490001875, -0.000674666, -0.00246815, -0.00137315, 0.0587344, 0.943527, -0.199325
1177.6885213820000899, -0.000642235, -0.00250315, -0.00136922, 0.0587105, 0.944322, -0.19902
1177.7218376920002356, -0.000641428, -0.00253882, -0.00136268, 0.0586757, 0.945388, -0.198563
1177.7551540490001116, -0.000622806, -0.00257396, -0.00135936, 0.058641, 0.946535, -0.198091
1177.7884703490001357, -0.000618295, -0.00262208, -0.00136292, 0.0586048, 0.947728, -0.197577
1177.8217866820000381, -0.000611633, -0.00266612, -0.00136529, 0.0585625, 0.949152, -0.196978
1177.8551030200001151, -0.000598178, -0.00268747, -0.00136605, 0.0585275, 0.950401, -0.196493
1177.8884193820001656, -0.00058976, -0.00270309, -0.00136824, 0.0584837, 0.951916, -0.195888
1177.9217357160000574, -0.000579813, -0.00274578, -0.00137069, 0.0584736, 0.952185, -0.19574
1177.9552020160001575, -0.000561255, -0.00275368, -0.00136674, 0.0584576, 0.952753, -0.195529
1177.9885183820001657, -0.000567492, -0.00277293, -0.00136626, 0.0584252, 0.953769, -0.195078
1178.0218347160000576, -0.000565185, -0.00282559, -0.00136118, 0.0584339, 0.953384, -0.195201
1178.055150987000161, -0.000574495, -0.00284822, -0.0013532, 0.0584096, 0.954092, -0.194873
1178.0884673820000899, -0.000570617, -0.00286873, -0.00135514, 0.0583618, 0.955568, -0.194224
1178.1217837160002091, -0.000554784, -0.00287261, -0.0013488, 0.0583282, 0.956682, -0.193791
1178.1551000490001115, -0.000544907, -0.00289662, -0.00135243, 0.0582972, 0.957625, -0.193397
1178.1884163820002414, -0.000520399, -0.00291136, -0.00135795, 0.0582805, 0.95817, -0.19319
1178.2217327150001438, -0.000512028, -0.00292299, -0.00136522, 0.0582261, 0.959874, -0.192544
1178.255049020000115, -0.000483581, -0.00292495, -0.00137843, 0.0581855, 0.961214, -0.192075
1178.2885153540000829, -0.00046886, -0.00290319, -0.00138959, 0.0581576, 0.962179, -0.191761
1178.3218316870002127, -0.000461156, -0.00290113, -0.00139965, 0.0581687, 0.961802, -0.191894
1178.355148606000057, -0.000454274, -0.00291341, -0.00141363, 0.0581703, 0.961686, -0.19191
1178.3884643820001656, -0.000446918, -0.00292094, -0.00142727, 0.0581557, 0.962158, -0.191729
1178.4217807150000681, -0.000442762, -0.0029286, -0.00143321, 0.0581491, 0.962367, -0.191649
1178.4550970200000393, -0.000451172, -0.00293848, -0.00143789, 0.0581391, 0.962695, -0.191515
1178.4884133540001585, -0.000452615, -0.00293888, -0.00144695, 0.058123, 0.963308, -0.191299
1178.5217296820001138, -0.000458004, -0.00294483, -0.0014542, 0.0581179, 0.96347, -0.191222
1178.5550460150002436, -0.00046346, -0.0029609, -0.00146656, 0.0581091, 0.963747, -0.191097
1178.5883623820002413, -0.000476516, -0.00297606, -0.0014746, 0.0580943, 0.964282, -0.190889
1178.6216786580000644, -0.000494233, -0.00299208, -0.00147536, 0.058088, 0.964433, -0.190804
1178.6551450150002438, -0.000516874, -0.00299443, -0.00147242, 0.058062, 0.96544, -0.190446
1178.6884613540000828, -0.000540286, -0.00299856, -0.00147109, 0.0580466, 0.965984, -0.190233
1178.7217776820000381, -0.000559421, -0.00301602, -0.00147273, 0.0580271, 0.966638, -0.18996
1178.7550940150001679, -0.000584209, -0.00302385, -0.00147703, 0.058003, 0.967445, -0.189622
1178.7884103490000598, -0.00059965, -0.00302329, -0.00147579, 0.0579831, 0.968146, -0.189343
1178.821726715000068, -0.000619784, -0.00301913, -0.00147448, 0.0579441, 0.969521, -0.188794
1178.8550430200000392, -0.000640725, -0.00302171, -0.0014718, 0.0579214, 0.970278, -0.188476
1178.8883593490002113, -0.000668052, -0.00303234, -0.0014669, 0.0579153, 0.970414, -0.188391
1178.9216757150002195, -0.000683948, -0.00303434, -0.00146608, 0.057894, 0.971138, -0.188083
1178.9549920150002436, -0.000699409, -0.00304287, -0.0014619, 0.0578744, 0.971798, -0.187798
1178.9884583530001692, -0.000717599, -0.00304669, -0.00145586, 0.0578531, 0.972519, -0.187487
1179.0217747150002197, -0.000732281, -0.00305359, -0.00145216, 0.0578304, 0.973275, -0.187149
1179.0550910150002437, -0.000750661, -0.00306422, -0.00144365, 0.057815, 0.973764, -0.186924
1179.0884073820002413, -0.000772002, -0.00307096, -0.00143747, 0.0577925, 0.974496, -0.186585
1179.1217237150001438, -0.000791015, -0.00307407, -0.00143239, 0.0577753, 0.975048, -0.186327
1179.1550400490000357, -0.000808129, -0.00308138, -0.00142809, 0.0577595, 0.975554, -0.186088
1179.1883563490000597, -0.00082487, -0.00308531, -0.00142242, 0.0577464, 0.975987, -0.185887
1179.2216727150000679, -0.00084606, -0.00308861, -0.00142068, 0.0577286, 0.976564, -0.185621
1179.2549895010001819, -0.000861112, -0.00309547, -0.00141468, 0.0577179, 0.976923, -0.185465
1179.2883053820000896, -0.000875842, -0.00310023, -0.00141279, 0.0577056, 0.977346, -0.18528
1179.3216217150002194, -0.000891773, -0.00310848, -0.00140793, 0.0576945, 0.977728, -0.185117
1179.3550880490001873, -0.000907331, -0.00311567, -0.00140662, 0.0576855, 0.978024, -0.184983
1179.3884043820000898, -0.000922258, -0.0031157, -0.0013988, 0.0576638, 0.978834, -0.184678
1179.4217206870000609, -0.000934956, -0.00311669, -0.00139371, 0.0576435, 0.979581, -0.184396
1179.4550370200001908, -0.000953526, -0.00311956, -0.0013872, 0.0576268, 0.980173, -0.184165
1179.4883533820002413, -0.000970583, -0.00312405, -0.00138168, 0.0576121, 0.980676, -0.183967
1179.5216696820000379, -0.000992235, -0.0031309, -0.00137537, 0.0576048, 0.9809, -0.183866
1179.554986891000226, -0.00101413, -0.00313408, -0.00136749, 0.0575969, 0.98116, -0.183757
1179.5883023490000596, -0.00103788, -0.00313138, -0.00135933, 0.0575801, 0.981771, -0.183524
1179.6216186870001366, -0.00107242, -0.0031296, -0.00135055, 0.0575736, 0.981958, -0.183434
1179.6549359060002189, -0.00110676, -0.00313126, -0.00134191, 0.0575619, 0.982338, -0.183274
1179.6884013200001391, -0.00113938, -0.00313171, -0.00133409, 0.0575367, 0.983292, -0.182926
1179.7217176870001367, -0.00117131, -0.00314189, -0.00132685, 0.0575262, 0.983634, -0.182783
1179.7550340390000656, -0.00120594, -0.00315726, -0.00132066, 0.0575202, 0.983762, -0.182704
1179.7883503490002113, -0.00124189, -0.00316754, -0.00131415, 0.0575022, 0.984413, -0.182462
1179.8216667150002195, -0.00127222, -0.00318583, -0.0013089, 0.0575082, 0.984019, -0.182547
1179.8549830200001907, -0.00130616, -0.0031893, -0.00130227, 0.05746, 0.986044, -0.181918
1179.8882993490001354, -0.00133907, -0.00319722, -0.00129812, 0.0574413, 0.986766, -0.181674
1179.9216157150001436, -0.00136579, -0.00320843, -0.00129524, 0.057434, 0.987013, -0.181575
1179.9549320490000355, -0.00139509, -0.00320927, -0.0012889, 0.0573959, 0.988525, -0.181088
1179.9882483490000595, -0.00142254, -0.00320921, -0.00128275, 0.0573801, 0.989057, -0.180886
1180.0215647150000677, -0.00144209, -0.00320628, -0.00127737, 0.05735, 0.990157, -0.180508
1180.0550310490000356, -0.00146224, -0.00320734, -0.00127235, 0.0573442, 0.990334, -0.180437
1180.0883473820001655, -0.00148151, -0.00320315, -0.00126715, 0.0573217, 0.991152, -0.180164
1180.1216637150000679, -0.00150211, -0.00319935, -0.00126126, 0.0573159, 0.991335, -0.18009
1180.1549800490001871, -0.00152261, -0.00319861, -0.00125652, 0.0573089, 0.991535, -0.180004
1180.1882963820000896, -0.00154295, -0.00319336, -0.00124975, 0.0572914, 0.992169, -0.179778
1180.2216126870000608, -0.00156134, -0.00319159, -0.00124479, 0.0572824, 0.992487, -0.179657
1180.2549290010001641, -0.00157815, -0.00319002, -0.00124206, 0.0572708, 0.992889, -0.179504
1180.2882453490001353, -0.001595, -0.0031895, -0.00123756, 0.0572693, 0.992921, -0.179483
1180.3215617150001435, -0.00160948, -0.00318919, -0.00123396, 0.0572593, 0.993287, -0.179343
1180.3548780150001676, -0.00162364, -0.00318664, -0.00123019, 0.0572548, 0.99344, -0.179278
1180.3883443820002412, -0.00163867, -0.00318358, -0.00122628, 0.0572474, 0.993717, -0.179169
1180.4216607150001437, -0.00165357, -0.00317806, -0.00122373, 0.0572299, 0.994378, -0.178912
1180.4549770480000461, -0.00166784, -0.00317779, -0.00122231, 0.0572324, 0.994241, -0.178947
1180.4882933200001389, -0.00168227, -0.00317301, -0.00121912, 0.0572154, 0.994903, -0.178695
1180.5216097150000678, -0.00169919, -0.00316993, -0.00121687, 0.0572082, 0.99515, -0.178591
1180.5549260480001976, -0.00171988, -0.00316493, -0.00121554, 0.0571969, 0.995571, -0.178425
1180.5882423820000895, -0.00173904, -0.00316323, -0.00121333, 0.0571892, 0.995847, -0.178312
1180.6215587150002193, -0.0017583, -0.00316266, -0.00121305, 0.057185, 0.995966, -0.178248
1180.6548750480001218, -0.00177661, -0.00316211, -0.00121081, 0.0571791, 0.996193, -0.178159
1180.688191382000241, -0.00179346, -0.00316188, -0.00120885, 0.0571698, 0.996567, -0.178023
1180.7216577150002195, -0.00180985, -0.0031608, -0.00120597, 0.0571632, 0.996832, -0.177926
1180.7549740150002435, -0.00182509, -0.00316001, -0.0012041, 0.0571545, 0.997194, -0.177794
1180.788290348000146, -0.00183877, -0.00316318, -0.00120155, 0.057151, 0.997312, -0.177741
1180.8216067150001436, -0.00184864, -0.00316709, -0.00119904, 0.0571551, 0.997102, -0.177809
1180.854923048000046, -0.00185024, -0.00316381, -0.00120141, 0.0572039, 0.994937, -0.178548
1180.8882393820001653, -0.00185058, -0.00315637, -0.0011981, 0.0572297, 0.993876, -0.178934
1180.9215556870001365, -0.00184831, -0.00315923, -0.00119899, 0.0572203, 0.99426, -0.178804
1180.9548720150000918, -0.00183935, -0.00316244, -0.00120232, 0.0571597, 0.996685, -0.177989
1180.9881883870000365, -0.00185201, -0.00317371, -0.00120353, 0.0572108, 0.994697, -0.178562
1181.0215047150002192, -0.00185375, -0.0031843, -0.00120656, 0.0573173, 0.990735, -0.179518
1181.0548209870000846, -0.00185204, -0.00318073, -0.00120528, 0.0573529, 0.989374, -0.179766
1181.0882873530001689, -0.00184668, -0.00318008, -0.00120586, 0.0573699, 0.988522, -0.179761
1181.1216037150002194, -0.00185694, -0.00319348, -0.00120806, 0.0574325, 0.985657, -0.179402
1181.1549200480001218, -0.00185808, -0.00319739, -0.00120941, 0.0574516, 0.984692, -0.179076
1181.1882363480001459, -0.00185461, -0.00319887, -0.00121023, 0.0574554, 0.984065, -0.178685
1181.2215527150001435, -0.001857, -0.00319811, -0.00120962, 0.0574518, 0.984218, -0.179067
1181.2548690200001147, -0.00185783, -0.00319535, -0.001209, 0.0574406, 0.98517, -0.180389
1181.2881853820001652, -0.0018567, -0.00319361, -0.00120803, 0.0574312, 0.985786, -0.181337
1181.3215017150000676, -0.00185545, -0.00318741, -0.00120601, 0.0574203, 0.988692, -0.186377
1181.3548180150000917, -0.00185455, -0.00318502, -0.00120577, 0.0574201, 0.989914, -0.18866
1181.3881343820000893, -0.00185384, -0.00318669, -0.00120721, 0.0574244, 0.98814, -0.184117
1181.4216006860001471, -0.00185265, -0.00318947, -0.00120891, 0.0574324, 0.986165, -0.178067
1181.4549170290001712, -0.00185201, -0.00319135, -0.00121083, 0.0574426, 0.985176, -0.17362
1181.4882333820000895, -0.00185061, -0.00319237, -0.00121202, 0.0574646, 0.984285, -0.16661
1181.5215497150002193, -0.00184955, -0.00319126, -0.00121216, 0.0574718, 0.984278, -0.164776
1181.5548660150002434, -0.00184873, -0.00318738, -0.00121079, 0.0574684, 0.984659, -0.165916
1181.5881823530000929, -0.00184834, -0.00318813, -0.00121112, 0.0575035, 0.984465, -0.158931
1181.6214987150001434, -0.00184818, -0.00318881, -0.00121245, 0.0575367, 0.984349, -0.152086
1181.6548150580001675, -0.00184837, -0.00318975, -0.00121371, 0.0575701, 0.98413, -0.144395
1181.6881313820001651, -0.00184874, -0.00318934, -0.00121362, 0.057589, 0.983989, -0.139484
1181.7214477150000675, -0.00184867, -0.00318942, -0.00121312, 0.0575601, 0.984416, -0.148915
1181.7547640480001974, -0.00184885, -0.00318967, -0.00121294, 0.0575572, 0.984672, -0.152213
1181.7882303480000701, -0.0018495, -0.00318971, -0.00121225, 0.0575663, 0.984304, -0.147348
1181.8215467150000677, -0.00185006, -0.00318839, -0.00121058, 0.0575827, 0.985158, -0.152495
1181.8548630150000918, -0.00185144, -0.00318798, -0.00121012, 0.0575832, 0.985026, -0.152691
1181.8881795100001, -0.00185321, -0.00318751, -0.0012101, 0.0575647, 0.984221, -0.14945
1181.9214956820001134, -0.00185381, -0.00318757, -0.00120966, 0.0575695, 0.984331, -0.147738
1181.9548120480001216, -0.00185399, -0.00318682, -0.00120951, 0.0575773, 0.984495, -0.1484
1181.9881283820002409, -0.00185497, -0.00318707, -0.00120945, 0.0575648, 0.983304, -0.142399
1182.0214447150001433, -0.00185507, -0.003187, -0.00120987, 0.0575009, 0.980918, -0.137834
1182.0547610480000458, -0.00185544, -0.00318702, -0.0012095, 0.0574753, 0.978916, -0.133356
1182.0880773530002443, -0.00185585, -0.00318728, -0.00120918, 0.0574703, 0.976352, -0.125918
1182.1215437150001435, -0.0018561, -0.00318753, -0.00120927, 0.0574614, 0.975478, -0.124727
1182.1548600150001676, -0.00185649, -0.00318707, -0.00120986, 0.0574274, 0.976768, -0.128013
1182.18817634800007, -0.00185618, -0.00318626, -0.00121012, 0.0574145, 0.978525, -0.131854
1182.2214927150000676, -0.00185603, -0.00318602, -0.00121034, 0.0574361, 0.980919, -0.134238
1182.2548090150000917, -0.00185668, -0.00318637, -0.00121075, 0.0574491, 0.981599, -0.13203
1182.2881253480002215, -0.00185783, -0.0031873, -0.00121073, 0.0574365, 0.977983, -0.126473
1182.3214416820001134, -0.00185797, -0.00318718, -0.00121025, 0.0574068, 0.976012, -0.125639
1182.3547580200001903, -0.00185868, -0.00318778, -0.0012105, 0.0573834, 0.973625, -0.122076
1182.3880743530000927, -0.00185969, -0.00318915, -0.00120973, 0.0573754, 0.967606, -0.115537
1182.4213906820000375, -0.00186027, -0.00318939, -0.0012096, 0.0573542, 0.965083, -0.11399
1182.4547070480000457, -0.00186113, -0.00318986, -0.00120854, 0.0573919, 0.96264, -0.111073
1182.488173382000241, -0.00186161, -0.0031904, -0.00120759, 0.0574093, 0.959664, -0.10856
1182.5214896820000376, -0.00186213, -0.00319098, -0.00120794, 0.0573972, 0.958, -0.106644
1182.5548060200001146, -0.00186269, -0.00319133, -0.0012072, 0.0573831, 0.955317, -0.106515
1182.5881223820001651, -0.00186412, -0.00319159, -0.00120613, 0.0574045, 0.951388, -0.104754
1182.6214387150000675, -0.00186491, -0.00319183, -0.00120581, 0.057413, 0.94903, -0.103697
1182.6547550480001973, -0.00186592, -0.00319257, -0.00120638, 0.0574192, 0.946768, -0.101284
1182.6880713820000892, -0.00186645, -0.00319373, -0.00120695, 0.0574748, 0.949102, -0.102152
1182.7213876810001238, -0.00186666, -0.00319414, -0.00120711, 0.0574754, 0.951303, -0.104054
1182.7547040200001902, -0.00186673, -0.00319463, -0.00120734, 0.0574893, 0.953572, -0.105829
1182.7880203810002513, -0.00186728, -0.00319462, -0.0012069, 0.0574996, 0.952838, -0.10526
1182.821486681000124, -0.00186758, -0.00319446, -0.00120668, 0.0574804, 0.951317, -0.103856
1182.8548030480001216, -0.00186824, -0.00319489, -0.00120688, 0.0575224, 0.952683, -0.105192
1182.8881193480001457, -0.00186876, -0.00319535, -0.001207, 0.0576688, 0.955295, -0.107526
1182.9214357150001433, -0.00186905, -0.00319557, -0.00120687, 0.0577755, 0.956275, -0.107618
1182.9547520150001674, -0.00186917, -0.00319554, -0.00120693, 0.0577747, 0.955634, -0.106154
1182.9880683530002443, -0.00186938, -0.00319542, -0.00120687, 0.0577627, 0.954507, -0.103618
1183.021384653000041, -0.00186969, -0.00319572, -0.00120677, 0.0578495, 0.953928, -0.100773
1183.0547010480001973, -0.00186969, -0.0031958, -0.00120675, 0.0578472, 0.951581, -0.0948891
1183.0880173530001684, -0.00187007, -0.0031958, -0.00120652, 0.0578463, 0.951098, -0.0932998
1183.1213336530001925, -0.00187052, -0.00319549, -0.00120635, 0.0578707, 0.951482, -0.0935607
1183.1546500480001214, -0.00187106, -0.00319526, -0.00120656, 0.0577999, 0.950122, -0.0908833
1183.1881163530001686, -0.00187178, -0.00319504, -0.00120595, 0.0577033, 0.948173, -0.0860503
1183.2214327150002191, -0.00187209, -0.00319485, -0.00120574, 0.0576563, 0.947331, -0.082849
1183.2547490150002432, -0.00187211, -0.0031943, -0.00120552, 0.0575921, 0.94639, -0.0799549
1183.2880653810002514, -0.00187197, -0.00319441, -0.00120534, 0.0575113, 0.944803, -0.0721607
1183.3213816860002225, -0.00187219, -0.00319523, -0.00120561, 0.0574686, 0.943677, -0.0689153
1183.3546980480000457, -0.00187209, -0.00319514, -0.00120527, 0.0574375, 0.942395, -0.0663502
1183.3880143530002442, -0.00187162, -0.00319471, -0.00120472, 0.057381, 0.941086, -0.0614765
1183.4213307190002524, -0.00187202, -0.00319468, -0.00120427, 0.0573731, 0.940928, -0.0612165
1183.4546469910001179, -0.00187264, -0.00319554, -0.00120422, 0.0573329, 0.939558, -0.0584581
1183.4879633480002212, -0.00187212, -0.00319696, -0.00120576, 0.0573261, 0.937059, -0.0484126
1183.5214297150000675, -0.00187201, -0.00319745, -0.00120607, 0.0573434, 0.937062, -0.0466112
1183.5547460150000916, -0.0018724, -0.00319846, -0.00120638, 0.0573378, 0.935713, -0.0419327
1183.5880623480002214, -0.00187255, -0.00319993, -0.00120737, 0.0573562, 0.93337, -0.0364103
1183.621378686000071, -0.00187235, -0.00320026, -0.00120752, 0.0573639, 0.932885, -0.0361797
1183.6546950430001743, -0.00187254, -0.00320092, -0.00120725, 0.0574329, 0.932986, -0.0332437
1183.6880113810002513, -0.00187287, -0.00320119, -0.00120678, 0.0575169, 0.933302, -0.0317117
1183.7213277150001431, -0.00187377, -0.00320065, -0.00120529, 0.057591, 0.933748, -0.0316672
1183.7546440190001249, -0.00187391, -0.00320102, -0.00120485, 0.0577786, 0.934346, -0.0233886
1183.7879603530002441, -0.00187349, -0.00319957, -0.00120389, 0.0578509, 0.933207, -0.0197498
1183.8212767240001995, -0.00187288, -0.00319856, -0.00120363, 0.0579809, 0.933422, -0.0137524
1183.8547430150001674, -0.0018713, -0.00319626, -0.00120318, 0.0581929, 0.935022, -0.00550335
1183.8880593670000962, -0.00187002, -0.00319509, -0.00120309, 0.0583063, 0.935725, -0.00091703
1183.9213757100001203, -0.00186975, -0.00319609, -0.00120335, 0.0582862, 0.935347, -0.00151071
1183.9546920190000492, -0.00186811, -0.00319594, -0.00120329, 0.0582748, 0.935588, -0.00285672
1183.9880083530001684, -0.00186698, -0.00319488, -0.00120286, 0.0582074, 0.935367, -0.00673261
1184.0213247150002189, -0.00186689, -0.0031948, -0.00120259, 0.0582218, 0.935655, -0.00711758
1184.054641015000243, -0.00186652, -0.00319545, -0.00120282, 0.0582194, 0.935972, -0.00981596
1184.0879573480001454, -0.00186647, -0.00319515, -0.00120243, 0.0582103, 0.936224, -0.0122066
1184.1212736530001166, -0.00186679, -0.00319689, -0.00120267, 0.0582966, 0.937899, -0.0183532
1184.1545900480000455, -0.00186656, -0.00319901, -0.00120336, 0.0583683, 0.939791, -0.0260429
1184.1879063810001753, -0.00186687, -0.00319966, -0.00120338, 0.0584165, 0.940599, -0.0280406
1184.2213727150001432, -0.00186703, -0.00319984, -0.00120375, 0.0584323, 0.940435, -0.0254655
1184.2546890150001673, -0.00186694, -0.00319921, -0.00120382, 0.0584089, 0.939009, -0.0189632
1184.2880053810001755, -0.0018659, -0.00319718, -0.00120375, 0.0583635, 0.936304, -0.00952388
1184.3213216810001995, -0.0018674, -0.0031975, -0.00120436, 0.0583297, 0.934497, -0.00489975
1184.3546379910001178, -0.00186776, -0.00319709, -0.0012047, 0.0582907, 0.932709, -0.000462814
1184.3879543530001683, -0.00186908, -0.00319609, -0.00120407, 0.0582632, 0.931398, 0.00293197
1184.4212706860000708, -0.00187051, -0.00319439, -0.00120347, 0.0582048, 0.928528, 0.00904974
1184.4545870190002006, -0.00187074, -0.00319373, -0.00120313, 0.0581509, 0.92592, 0.0139901
1184.4879033530000925, -0.00187125, -0.00319405, -0.00120348, 0.0580987, 0.923661, 0.017138
1184.521219715000143, -0.0018713, -0.00319444, -0.00120381, 0.0580605, 0.922152, 0.0187872
1184.5546860150002431, -0.0018716, -0.00319504, -0.00120401, 0.0579627, 0.918177, 0.0224272
1184.5880023190002248, -0.00187186, -0.00319496, -0.00120381, 0.0579332, 0.916703, 0.0237794
1184.6213187150001431, -0.00187178, -0.00319451, -0.00120323, 0.0579283, 0.916474, 0.0238768
1184.6546350480000456, -0.00187202, -0.00319489, -0.0012034, 0.0578998, 0.915112, 0.0249388
1184.6879513810001754, -0.00187222, -0.00319527, -0.00120363, 0.0578443, 0.912158, 0.0267239
1184.7212676810001994, -0.00187245, -0.00319498, -0.0012034, 0.0578043, 0.909994, 0.028033
1184.7545840150000913, -0.00187276, -0.00319464, -0.00120322, 0.0577868, 0.909064, 0.0285685
1184.7879003810000995, -0.00187338, -0.00319448, -0.00120278, 0.0577404, 0.906641, 0.0299457
1184.8212166760001764, -0.00187373, -0.00319468, -0.00120295, 0.0577157, 0.905558, 0.0305067
1184.8545330150002428, -0.00187434, -0.00319459, -0.00120298, 0.0575282, 0.897638, 0.0353502
1184.8878493530000924, -0.00187457, -0.00319487, -0.00120307, 0.0574353, 0.893917, 0.0378017
1184.9213156810001237, -0.00187455, -0.00319498, -0.00120327, 0.0573015, 0.889502, 0.0407553
1184.9546320190002007, -0.00187507, -0.00319539, -0.00120313, 0.0572237, 0.885944, 0.0426221
1184.9879483810002512, -0.0018756, -0.003195, -0.00120234, 0.0573186, 0.888417, 0.0402918
1185.0212647140001536, -0.00187512, -0.0031958, -0.00120334, 0.0574969, 0.894569, 0.0361213
1185.0545810480000455, -0.00187436, -0.00319565, -0.00120386, 0.0575867, 0.89808, 0.0343984
1185.0878973480000695, -0.00187441, -0.00319425, -0.00120277, 0.0576174, 0.897916, 0.0347303
1185.1212137140000777, -0.00187454, -0.00319347, -0.00120202, 0.057676, 0.899223, 0.032918
1185.154530048000197, -0.0018743, -0.00319288, -0.00120192, 0.0576052, 0.898774, 0.0332552
1185.1878463530001682, -0.00187443, -0.0031928, -0.00120197, 0.0576656, 0.900627, 0.031713
1185.2211627140002292, -0.00187438, -0.003192, -0.00120176, 0.0577146, 0.901863, 0.0303075
1185.2546290190000491, -0.00187434, -0.00319204, -0.00120254, 0.0576799, 0.902521, 0.0292264
1185.2879453480002212, -0.00187402, -0.0031924, -0.00120287, 0.0576674, 0.902195, 0.029477
1185.3212617140002294, -0.00187425, -0.00319218, -0.00120297, 0.0577915, 0.906148, 0.024708
1185.3545780480001213, -0.0018735, -0.00319189, -0.0012036, 0.0576124, 0.901841, 0.0283304
1185.3878943530000925, -0.00187337, -0.00319205, -0.00120349, 0.0576008, 0.901553, 0.0284183
1185.4212107140001535, -0.00187375, -0.00319198, -0.00120315, 0.0576284, 0.902042, 0.0284846
1185.4545270140001776, -0.00187508, -0.00319248, -0.00120315, 0.0576523, 0.901212, 0.031518
1185.4878433810001752, -0.00187501, -0.00319298, -0.00120363, 0.0576273, 0.898976, 0.0355706
1185.5211596530000406, -0.00187489, -0.0031929, -0.00120383, 0.0576197, 0.898734, 0.0359266
1185.5544760140001017, -0.00187477, -0.00319276, -0.00120391, 0.0576169, 0.898545, 0.0357389
1185.5877923810000993, -0.00187488, -0.00319309, -0.00120443, 0.0576335, 0.897525, 0.0370941
1185.6212586860001466, -0.00187447, -0.00319333, -0.00120506, 0.0576485, 0.895826, 0.0399094
1185.6545755860001918, -0.00187421, -0.0031932, -0.00120529, 0.0576767, 0.895132, 0.0406115
1185.6878913810000995, -0.00187419, -0.00319323, -0.00120553, 0.0577349, 0.894902, 0.0412739
1185.7212076810001236, -0.00187441, -0.00319322, -0.00120523, 0.0578464, 0.894786, 0.0414478
1185.7545240190002005, -0.00187441, -0.00319322, -0.00120523, 0.0578464, 0.894786, 0.0414478
1185.787840381000251, -0.00187436, -0.00319335, -0.00120507, 0.0579271, 0.895054, 0.0407144
1185.8211567140001534, -0.00187434, -0.00319356, -0.00120492, 0.058114, 0.89472, 0.0401255
1185.8544729910001934, -0.00187453, -0.00319304, -0.00120528, 0.0578495, 0.893024, 0.0414384
1185.8877893520002544, -0.00187449, -0.00319296, -0.00120578, 0.0577568, 0.892054, 0.0416759
1185.9211057140000776, -0.00187446, -0.00319301, -0.00120558, 0.0579773, 0.891676, 0.0402593
1185.9545719910001935, -0.00187443, -0.00319272, -0.00120582, 0.0580638, 0.890681, 0.0396872
1185.9878883520002546, -0.00187455, -0.00319187, -0.00120592, 0.0581921, 0.888279, 0.0384987
1186.0212047140000777, -0.0018749, -0.00319149, -0.00120518, 0.0584248, 0.88814, 0.037059
1186.054521338000086, -0.0018754, -0.00319098, -0.00120409, 0.0586792, 0.887572, 0.0351571
1186.0878373520001787, -0.00187557, -0.00319041, -0.00120341, 0.0589063, 0.887389, 0.0336673
1186.1211537140002292, -0.00187572, -0.00318942, -0.00120321, 0.0593056, 0.887409, 0.0320068
1186.1544700620002004, -0.00187584, -0.00318927, -0.00120303, 0.059362, 0.887349, 0.0318246
1186.1877863810002509, -0.00187568, -0.00319011, -0.00120354, 0.0593856, 0.888613, 0.0318631
1186.2211026860002221, -0.00187547, -0.00319016, -0.00120389, 0.059472, 0.889133, 0.0318203
1186.2544190190001245, -0.00187524, -0.00319058, -0.0012043, 0.0594574, 0.889502, 0.0319396
1186.2877353520002544, -0.0018754, -0.00319189, -0.00120438, 0.0594257, 0.890567, 0.0313742
1186.3212017140001535, -0.00187522, -0.00319278, -0.0012048, 0.0593938, 0.891222, 0.030719
1186.3545180480000454, -0.0018749, -0.00319505, -0.00120576, 0.0593708, 0.893247, 0.0287594
1186.3878343810001752, -0.00187495, -0.00319574, -0.0012059, 0.0593285, 0.893701, 0.027915
1186.4211507140000776, -0.00187475, -0.0031962, -0.00120633, 0.0593073, 0.893945, 0.027335
1186.4544670190000488, -0.00187432, -0.00319694, -0.00120706, 0.0592212, 0.894123, 0.0257128
1186.4877833810000993, -0.00187464, -0.00319592, -0.00120672, 0.059336, 0.894189, 0.027799
1186.5210997140002291, -0.00187474, -0.00319644, -0.00120675, 0.059281, 0.894191, 0.0264329
1186.554416048000121, -0.00187479, -0.0031968, -0.0012069, 0.0592047, 0.89401, 0.0250986
1186.5877323810002508, -0.00187485, -0.00319628, -0.00120656, 0.0592358, 0.893919, 0.026178
1186.621048686000222, -0.00187463, -0.00319448, -0.00120621, 0.059388, 0.893737, 0.0304274
1186.6545150140002534, -0.00187439, -0.00319278, -0.00120559, 0.0595433, 0.893389, 0.0349292
1186.6878313520001029, -0.00187434, -0.00319229, -0.00120551, 0.0595763, 0.893297, 0.0357873
1186.7211477140001534, -0.00187428, -0.00319121, -0.00120534, 0.0597221, 0.893905, 0.0378179
1186.7544640190001246, -0.0018747, -0.00319007, -0.0012045, 0.0598322, 0.894411, 0.0391717
1186.7877803520002544, -0.00187484, -0.00318895, -0.00120366, 0.0599698, 0.89482, 0.04104
1186.8210966860001463, -0.00187435, -0.00318671, -0.0012031, 0.060192, 0.895033, 0.044031
1186.8544130140001016, -0.00187472, -0.00318598, -0.00120271, 0.060282, 0.895111, 0.0449834
1186.8877293810000992, -0.00187461, -0.00318525, -0.00120231, 0.0603711, 0.895263, 0.0453401
1186.9210456860000704, -0.00187431, -0.00318404, -0.00120146, 0.0605647, 0.895795, 0.0455534
1186.9543620480001209, -0.0018745, -0.00318325, -0.00120074, 0.0606919, 0.896127, 0.0455596
1186.987828348000221, -0.0018743, -0.00318179, -0.00119982, 0.0609289, 0.896934, 0.0452967
1187.0211447140002292, -0.00187407, -0.0031804, -0.00119862, 0.06122, 0.898195, 0.0447745
1187.0544610280001052, -0.00187426, -0.00317864, -0.00119748, 0.0616791, 0.89985, 0.0433046
1187.0877773810002509, -0.00187479, -0.00317687, -0.00119627, 0.0619446, 0.900405, 0.0421253
1187.1210937140001533, -0.00187488, -0.00317675, -0.0011967, 0.0621161, 0.901149, 0.0415868
1187.1544100480000452, -0.00187515, -0.00317649, -0.00119597, 0.0622099, 0.901498, 0.0411136
1187.1877263470000798, -0.00187447, -0.00317632, -0.00119668, 0.0622442, 0.901731, 0.0416288
1187.2210427140000775, -0.0018743, -0.00317562, -0.00119671, 0.0623773, 0.901967, 0.0410675
1187.2543590470002073, -0.00187437, -0.0031762, -0.00119678, 0.0626108, 0.903042, 0.0397993
1187.2876753810000992, -0.00187453, -0.00317708, -0.00119744, 0.0627904, 0.903785, 0.0389634
1187.3209916810001232, -0.00187467, -0.00317678, -0.00119739, 0.0629377, 0.904404, 0.0386571
1187.3544580470002074, -0.00187484, -0.00317715, -0.00119771, 0.0629568, 0.904501, 0.0384102
1187.3877743470002315, -0.00187513, -0.00317682, -0.00119756, 0.0630004, 0.903733, 0.0381675
1187.4210906860000705, -0.00187593, -0.00317763, -0.00119759, 0.0630293, 0.904668, 0.0380557
1187.4544070470001316, -0.00187649, -0.00317761, -0.00119732, 0.0629871, 0.903751, 0.0368257
1187.4877233810002508, -0.00187623, -0.00317852, -0.00119744, 0.0627889, 0.903053, 0.0370573
1187.5210397140001533, -0.00187579, -0.00317758, -0.00119753, 0.0627163, 0.90177, 0.0382952
1187.5543560470000557, -0.00187628, -0.00317779, -0.00119646, 0.0625799, 0.901668, 0.0366793
1187.5876723810001749, -0.0018759, -0.00317766, -0.001196, 0.0625232, 0.901837, 0.0361408
1187.6209887140000774, -0.00187562, -0.00317916, -0.00119734, 0.0623833, 0.901276, 0.035688
1187.6543050470002072, -0.00187554, -0.00317929, -0.00119738, 0.062354, 0.90119, 0.0359194
1187.6877713810001751, -0.00187556, -0.00317994, -0.00119759, 0.062389, 0.90206, 0.0353504
1187.7210876860001463, -0.00187662, -0.00318097, -0.00119761, 0.0623267, 0.90219, 0.0339647
1187.7544040810000752, -0.0018769, -0.00318099, -0.00119763, 0.0622968, 0.901673, 0.0346948
1187.7877203810000992, -0.00187719, -0.00318115, -0.0011978, 0.0622562, 0.901268, 0.0353456
1187.821036714000229, -0.00187749, -0.00318085, -0.00119768, 0.0622048, 0.899888, 0.0362697
1187.8543530190002002, -0.00187735, -0.00317933, -0.0011968, 0.0622172, 0.899736, 0.0361806
1187.8876693810002507, -0.00187778, -0.00317933, -0.00119668, 0.0621899, 0.899062, 0.0366992
1187.9209856850002325, -0.00187841, -0.00317872, -0.00119633, 0.0621219, 0.897337, 0.0375836
1187.9543020190001243, -0.00187849, -0.0031768, -0.0011957, 0.0620672, 0.895236, 0.0393079
1187.9876195430001644, -0.00187875, -0.00317624, -0.00119575, 0.0620539, 0.893865, 0.0405976
1188.0209347140000773, -0.00187921, -0.00317567, -0.00119588, 0.0620814, 0.89212, 0.0422186
1188.0544016520002515, -0.00187955, -0.00317769, -0.00119797, 0.0621446, 0.891879, 0.0430861
1188.0877176190001592, -0.00187939, -0.00317834, -0.00119921, 0.0621961, 0.890948, 0.0436444
1188.1210337140000775, -0.00187974, -0.00317834, -0.0011994, 0.0623494, 0.890258, 0.0439243
1188.1543500470002073, -0.00188018, -0.00317896, -0.00119985, 0.0624937, 0.891202, 0.0439168
1188.1876663810000991, -0.00187934, -0.00317732, -0.00119944, 0.0626035, 0.88997, 0.0440459
1188.220982714000229, -0.00188009, -0.00317826, -0.00119945, 0.0627169, 0.888642, 0.0433161
1188.2542990470001314, -0.00188065, -0.0031788, -0.00119945, 0.0628439, 0.88845, 0.0427513
1188.2876153900001555, -0.0018802, -0.00317772, -0.00119934, 0.0629568, 0.887618, 0.0425943
1188.3209316810000473, -0.00188036, -0.00317737, -0.00119888, 0.0630215, 0.887335, 0.0421789
1188.3542480190001243, -0.00188032, -0.00317691, -0.00119863, 0.0629969, 0.885789, 0.0425147
1188.3877143520001027, -0.00188029, -0.00317724, -0.0011985, 0.0631368, 0.884534, 0.0414901
1188.4210306810000475, -0.00188022, -0.00317786, -0.00119882, 0.0631871, 0.884338, 0.041126
1188.4543470140001773, -0.00187969, -0.00317815, -0.00119951, 0.0631596, 0.883871, 0.0415821
1188.4876633470000797, -0.00187937, -0.00317938, -0.00120024, 0.0633112, 0.883057, 0.0404865
1188.5209797140000774, -0.00187913, -0.00318053, -0.00120112, 0.0634976, 0.881625, 0.0388139
1188.5542960140001014, -0.00187861, -0.00318065, -0.00120135, 0.0635577, 0.880492, 0.0383864
1188.587612381000099, -0.00187835, -0.00318043, -0.00120123, 0.0636924, 0.879002, 0.0372232
1188.6209286810001231, -0.00187842, -0.00318017, -0.00120092, 0.0637532, 0.877792, 0.0362835
1188.6542450470001313, -0.00187879, -0.00317932, -0.0012001, 0.0636392, 0.879171, 0.0369894
1188.6875613230001818, -0.00187857, -0.00317943, -0.00120037, 0.0635806, 0.879684, 0.037469
1188.7208776850002323, -0.00187846, -0.00317934, -0.00120006, 0.0635379, 0.881058, 0.0377512
1188.7543440470001315, -0.00187757, -0.00318042, -0.00120123, 0.0634716, 0.883147, 0.0378379
1188.7876603470001555, -0.00187681, -0.00318176, -0.00120229, 0.0633928, 0.884508, 0.0378852
1188.8209766850002325, -0.00187714, -0.00318202, -0.00120211, 0.0634204, 0.886106, 0.0374517
1188.8542930140001772, -0.00187756, -0.00318193, -0.00120189, 0.0634113, 0.887919, 0.0370915
1188.8876093810001748, -0.00187719, -0.00318222, -0.00120249, 0.0633307, 0.889022, 0.0368773
1188.9209256570002253, -0.00187742, -0.00318253, -0.00120275, 0.0633432, 0.89091, 0.0364143
1188.9542420470002071, -0.00187709, -0.00318273, -0.0012027, 0.0633617, 0.89204, 0.0358042
1188.987558381000099, -0.00187658, -0.0031819, -0.00120211, 0.0633117, 0.892293, 0.0349807
1189.0208784040000864, -0.00187658, -0.0031814, -0.00120147, 0.0632899, 0.895344, 0.0330991
1189.0542047750002439, -0.00187609, -0.00318046, -0.00120039, 0.0633732, 0.89458, 0.0336846
1189.0876810070001284, -0.001876, -0.00318061, -0.00120032, 0.0634003, 0.895106, 0.0337067
1189.1210071360001166, -0.00187648, -0.00318115, -0.00120009, 0.0633653, 0.896617, 0.0332896
1189.154333736000126, -0.00187616, -0.00318108, -0.00120056, 0.0633008, 0.896769, 0.0331628
1189.1876594920001935, -0.00187599, -0.00318101, -0.00120054, 0.0631642, 0.896926, 0.0330945
1189.2209856540000601, -0.0018763, -0.00318135, -0.00120014, 0.0631924, 0.897437, 0.0333309
1189.2543118160001541, -0.00187711, -0.00318205, -0.00120021, 0.0633255, 0.89831, 0.0331075
1189.2876379770002586, -0.00187727, -0.00318199, -0.00119991, 0.0633986, 0.898908, 0.0330929
1189.3209641060002468, -0.001877, -0.00318194, -0.00119972, 0.0635209, 0.898932, 0.0324527
1189.3542903010002192, -0.00187638, -0.0031818, -0.00120021, 0.0635889, 0.898553, 0.0321629
1189.3876164190000964, -0.0018768, -0.00318291, -0.00120073, 0.0637292, 0.900241, 0.0312706
1189.4209425620001639, -0.00187633, -0.00318277, -0.00120054, 0.0638622, 0.900005, 0.0296952
1189.4544188300001224, -0.00187652, -0.00318326, -0.00120142, 0.0636064, 0.900018, 0.0324166
1189.4877449580001212, -0.00187677, -0.00318295, -0.00120115, 0.0638324, 0.899535, 0.0304766
1189.5210710910000671, -0.00187682, -0.00318305, -0.00120026, 0.0641452, 0.899928, 0.0277326
1189.5543973150001875, -0.00187678, -0.00318321, -0.00119998, 0.064327, 0.900288, 0.0260718
1189.5877234430001863, -0.00187678, -0.00318322, -0.00120016, 0.0643669, 0.899872, 0.0254842
1189.6210495860002538, -0.00187707, -0.00318296, -0.00119943, 0.0645376, 0.899716, 0.0237511
1189.6543758000002526, -0.00187701, -0.00318316, -0.00119958, 0.0646512, 0.899666, 0.0225469
1189.6877019610001298, -0.00187711, -0.00318314, -0.00119935, 0.0647163, 0.899405, 0.0215574
1189.7210281230002238, -0.00187741, -0.00318262, -0.00119833, 0.0648909, 0.898018, 0.0189689
1189.7543542510002226, -0.00187767, -0.00318179, -0.00119777, 0.065022, 0.895188, 0.0165905
1189.7876804180000363, -0.0018779, -0.00318085, -0.00119718, 0.0651395, 0.891983, 0.014134
1189.8211565900001006, -0.00187791, -0.00318051, -0.00119689, 0.0651568, 0.890686, 0.013694
1189.8544829660002051, -0.00187749, -0.00318175, -0.00119842, 0.065206, 0.89237, 0.0142964
1189.8878089750000981, -0.0018773, -0.00318198, -0.00119862, 0.0651744, 0.893152, 0.0148341
1189.9211351080000441, -0.00187697, -0.00318351, -0.00119904, 0.0651388, 0.895951, 0.0153911
1189.954461270000138, -0.00187652, -0.00318511, -0.0012003, 0.0651772, 0.898967, 0.0153759
1189.987787432000232, -0.00187608, -0.00318585, -0.00120094, 0.0651955, 0.900568, 0.0153456
1190.0211100200001511, -0.00187556, -0.00318756, -0.00120161, 0.0651631, 0.902953, 0.0155594
1190.0544260180001856, -0.00187505, -0.00318907, -0.00120239, 0.0651516, 0.905207, 0.0158933
1190.0877423520000775, -0.00187477, -0.003189, -0.00120277, 0.065183, 0.90594, 0.0161224
1190.1212086570001247, -0.00187495, -0.00318738, -0.00120231, 0.0651629, 0.903885, 0.0169483
1190.1545250470001065, -0.00187499, -0.00318668, -0.0012021, 0.065159, 0.902609, 0.0172696
1190.1878413520000777, -0.00187516, -0.00318674, -0.00120188, 0.0651784, 0.903297, 0.0169152
1190.2211581180001758, -0.00187537, -0.00318693, -0.00120202, 0.0651693, 0.904181, 0.0166267
1190.2544740180001099, -0.00187642, -0.0031876, -0.00120229, 0.0651512, 0.906385, 0.0161202
1190.2877903800001604, -0.0018769, -0.00318757, -0.00120227, 0.0651306, 0.905326, 0.0168559
1190.3211067380002532, -0.00187694, -0.00318777, -0.00120318, 0.0650968, 0.904188, 0.0172738
1190.3544230140000764, -0.001877, -0.00318789, -0.00120379, 0.0650522, 0.902657, 0.0174469
1190.3877393850000317, -0.0018766, -0.00318681, -0.00120403, 0.0650105, 0.897803, 0.0178434
1190.4210556800001086, -0.00187642, -0.00318616, -0.00120495, 0.0649977, 0.893622, 0.0182367
1190.4543719850000798, -0.00187622, -0.0031856, -0.00120524, 0.0649819, 0.890722, 0.018182
1190.4878383800000847, -0.00187631, -0.00318492, -0.0012047, 0.0649616, 0.887946, 0.017394
1190.521154714000204, -0.00187652, -0.00318479, -0.00120423, 0.0649338, 0.885749, 0.0163529
1190.5544718180001382, -0.00187655, -0.00318466, -0.00120407, 0.0649489, 0.884205, 0.0158316
1190.5877873800002362, -0.00187648, -0.00318334, -0.00120327, 0.0649662, 0.880444, 0.014674
1190.6211037140001281, -0.00187639, -0.0031822, -0.0012024, 0.0650344, 0.876804, 0.0127979
1190.6544200140001522, -0.00187572, -0.00318199, -0.00120273, 0.0651276, 0.875365, 0.0114236
1190.6877363470000546, -0.00187567, -0.00318241, -0.00120328, 0.0651728, 0.874649, 0.010656
1190.7210526800001844, -0.00187583, -0.00318205, -0.00120292, 0.0652412, 0.872788, 0.00912667
1190.754369047000182, -0.00187567, -0.00318173, -0.00120301, 0.0652828, 0.87255, 0.00910592
1190.7876853800000845, -0.00187546, -0.00318158, -0.00120303, 0.0653168, 0.871151, 0.00824446
1190.8211517140000524, -0.00187546, -0.00318087, -0.00120259, 0.0654411, 0.868534, 0.00622497
1190.8544680140000764, -0.00187488, -0.00318021, -0.00120278, 0.065455, 0.866823, 0.00598956
1190.8877843520001534, -0.00187466, -0.00317987, -0.00120279, 0.0654442, 0.865337, 0.00570851
1190.9211007140002039, -0.0018739, -0.00317853, -0.00120271, 0.0654397, 0.862332, 0.00519809
1190.9544170470001063, -0.00187313, -0.00317754, -0.00120291, 0.0654414, 0.860341, 0.00524187
1190.9877333520000775, -0.00187263, -0.00317619, -0.00120292, 0.0654337, 0.85674, 0.00474803
1191.0210496800000328, -0.00187343, -0.00317761, -0.00120302, 0.0654482, 0.859289, 0.0046831
1191.0543660180001098, -0.00187322, -0.00317839, -0.00120317, 0.0654515, 0.860866, 0.00494228
1191.0876823800001603, -0.00187332, -0.00317894, -0.00120326, 0.0654685, 0.86242, 0.00506936
1191.1209986800001843, -0.00187393, -0.0031777, -0.00120243, 0.0654969, 0.862651, 0.00500867
1191.1543149850001555, -0.00187375, -0.00317753, -0.00120239, 0.0654359, 0.861987, 0.00489704
1191.1877813800001604, -0.00187395, -0.00317669, -0.00120237, 0.065398, 0.860976, 0.00537855
1191.2210977140000523, -0.0018742, -0.00317542, -0.00120192, 0.0653358, 0.859696, 0.00590333
1191.2544140470001821, -0.00187445, -0.00317595, -0.0012022, 0.0653849, 0.861101, 0.00549311
1191.2877303470002062, -0.00187478, -0.00317684, -0.00120261, 0.0654081, 0.861946, 0.00512516
1191.3210467140002038, -0.0018755, -0.00317765, -0.00120269, 0.0653825, 0.862746, 0.00463559
1191.3543629850000798, -0.00187639, -0.00317793, -0.0012033, 0.0653009, 0.860769, 0.0053509
1191.3876793800002361, -0.00187697, -0.00317927, -0.00120413, 0.0652596, 0.861855, 0.00469596
1191.4209957140001279, -0.00187806, -0.0031805, -0.00120457, 0.0652542, 0.863852, 0.003938
1191.4543120470002577, -0.00187908, -0.00318062, -0.00120462, 0.0651915, 0.863363, 0.00389167
1191.4876283800001602, -0.00187973, -0.00318, -0.00120479, 0.0651227, 0.860347, 0.00475232
1191.5210947140001281, -0.00187979, -0.00318014, -0.0012048, 0.0651108, 0.860005, 0.0047564
1191.5544110180001098, -0.00187996, -0.00318041, -0.00120499, 0.0651161, 0.8595, 0.00478271
1191.5877273470000546, -0.00187982, -0.00317987, -0.00120457, 0.0651217, 0.858358, 0.00449638
1191.6210436800001844, -0.00188, -0.00317966, -0.00120383, 0.0651237, 0.857405, 0.00395368
1191.6543600130000868, -0.00188017, -0.00317967, -0.00120393, 0.0651377, 0.855934, 0.0036217
1191.6876763470002061, -0.00187998, -0.00317941, -0.00120401, 0.065138, 0.85314, 0.00284732
1191.7209927130002143, -0.00187982, -0.0031791, -0.00120364, 0.0651501, 0.849689, 0.00146482
1191.7543090470001061, -0.00187966, -0.00317857, -0.00120322, 0.0651106, 0.84897, 0.00174527
1191.787625380000236, -0.00187968, -0.00317828, -0.00120275, 0.0651104, 0.848496, 0.00147486
1191.8209416850002071, -0.00187993, -0.00317819, -0.00120228, 0.0651355, 0.848348, 0.000887568
1191.8542580180001096, -0.00188012, -0.00317905, -0.00120198, 0.0651873, 0.851392, 0.00107146
1191.8877243800002361, -0.00188022, -0.00317889, -0.00120199, 0.0651468, 0.851228, 0.00169512
1191.9210406850002073, -0.00188009, -0.0031792, -0.00120238, 0.0651135, 0.849306, 0.00144658
1191.9543570130001626, -0.00187982, -0.00317887, -0.0012024, 0.0650829, 0.847599, 0.00127815
1191.987673352000229, -0.00187977, -0.00317797, -0.00120216, 0.0650501, 0.843343, 0.000324503
1192.0209897130000627, -0.00187953, -0.00317879, -0.00120188, 0.0650573, 0.843322, -0.000267789
1192.0543060470001819, -0.00188142, -0.00317845, -0.00120126, 0.0650142, 0.843238, 0.000250689
1192.0876223520001531, -0.00188142, -0.00317889, -0.00120152, 0.0650204, 0.843803, 0.000189401
1192.1209386800001084, -0.00188142, -0.00317912, -0.00120164, 0.065024, 0.844196, 0.000209027
1192.1542550320000373, -0.00188168, -0.00317922, -0.00120167, 0.0650547, 0.845249, 8.29172e-05
1192.1875713800002359, -0.00188086, -0.00317911, -0.00120107, 0.0651657, 0.846586, -0.00143727
1192.2210376850000557, -0.00188043, -0.00317826, -0.00120063, 0.0652426, 0.849641, -0.00232268
1192.2543540180001855, -0.00188016, -0.00317935, -0.00120155, 0.0652948, 0.852264, -0.00242499
1192.2876703470001303, -0.00188008, -0.00317998, -0.00120199, 0.0653203, 0.853808, -0.00252485
1192.3209866800000327, -0.00188008, -0.00317905, -0.00120182, 0.0653149, 0.854257, -0.00210722
1192.3543030470002577, -0.00188059, -0.00317891, -0.00120216, 0.0653459, 0.854786, -0.00188092
1192.3876193800001602, -0.00188016, -0.00317842, -0.0012023, 0.0653279, 0.855768, -0.00221946
1192.4209356800001842, -0.00187993, -0.0031778, -0.00120223, 0.0652572, 0.854656, -0.00174503
1192.4542520130000867, -0.00188024, -0.00317587, -0.00120118, 0.0651758, 0.852961, -0.000966725
1192.4875683470002059, -0.00188039, -0.00317504, -0.0012007, 0.0650688, 0.848752, 0.000852811
1192.5208847130002141, -0.00188198, -0.00317553, -0.00120092, 0.065135, 0.851606, -0.000144597
1192.5542010130002382, -0.00188273, -0.00317471, -0.00120045, 0.0651282, 0.851264, -8.32228e-05
1192.5876673800000844, -0.00188242, -0.00317278, -0.00119991, 0.0651688, 0.853368, -0.000907138
1192.6209837130002143, -0.00188185, -0.00317115, -0.00119975, 0.065151, 0.853105, -0.00104045
1192.6543000470001061, -0.00188225, -0.00317048, -0.0011993, 0.0651082, 0.851296, -0.000750762
1192.6876163470001302, -0.00188288, -0.00317102, -0.00119981, 0.0650648, 0.848838, -0.000746918
1192.7209327130001384, -0.00188307, -0.00317256, -0.00120123, 0.0650326, 0.846319, -0.001022
1192.7542490470002576, -0.00188394, -0.00317203, -0.00120058, 0.065043, 0.845195, -0.0014305
1192.7875653470000543, -0.00188445, -0.00317303, -0.00120099, 0.0650396, 0.843747, -0.00199727
1192.8208817130000625, -0.0018853, -0.00317379, -0.00120071, 0.0650525, 0.841992, -0.00285021
1192.8541980470001818, -0.0018859, -0.00317439, -0.0012003, 0.0650364, 0.839228, -0.00388719
1192.8875143800000842, -0.00188674, -0.00317574, -0.0012004, 0.0650528, 0.838013, -0.00464654
1192.9209806510000362, -0.00188704, -0.00317628, -0.00119974, 0.0650716, 0.836479, -0.00571591
1192.9542970470001819, -0.00188699, -0.00317672, -0.00119987, 0.0650695, 0.835818, -0.0060297
1192.9876133800000844, -0.00188794, -0.00317725, -0.00119999, 0.0650371, 0.832794, -0.00720248
1193.0209296800001084, -0.00188796, -0.00317768, -0.00120001, 0.0650472, 0.831749, -0.00785291
1193.054246047000106, -0.00188792, -0.00317785, -0.00120006, 0.0650478, 0.831846, -0.00782073
1193.0875623800002359, -0.00188863, -0.00317878, -0.00120055, 0.0650434, 0.833173, -0.00701718
1193.1208787130001383, -0.00188838, -0.00317842, -0.00120002, 0.0650514, 0.833642, -0.00703022
1193.1541949850002311, -0.00188873, -0.00317715, -0.00119909, 0.0650582, 0.836504, -0.00597238
1193.18751138000016, -0.00188961, -0.0031784, -0.0011992, 0.0650769, 0.839434, -0.00514653
1193.2208277130000624, -0.00189061, -0.00318055, -0.0011998, 0.0650936, 0.842718, -0.0042838
1193.2541440130000865, -0.00189057, -0.00318097, -0.00120052, 0.0651077, 0.844194, -0.00377793
1193.2876103800001601, -0.00189103, -0.00318088, -0.00120091, 0.0651269, 0.84707, -0.00326972
1193.3209266800001842, -0.00189134, -0.00318055, -0.0012005, 0.0651367, 0.84706, -0.00352124
1193.3542430180000338, -0.0018919, -0.00318058, -0.00120018, 0.0651685, 0.848392, -0.00373362
1193.3875593800000843, -0.00189234, -0.00318057, -0.00120053, 0.0651495, 0.849287, -0.00320664
1193.4208757130002141, -0.00189189, -0.00317996, -0.00120055, 0.0651337, 0.848989, -0.00290016
1193.454192047000106, -0.00189112, -0.00317993, -0.00120054, 0.0651367, 0.84801, -0.0031469
1193.4875083510000877, -0.00189075, -0.00317969, -0.00120055, 0.0651116, 0.846769, -0.00280646
1193.5208246800000325, -0.00189049, -0.00317928, -0.00120032, 0.0651091, 0.846706, -0.0028399
1193.5541410180001094, -0.00188998, -0.0031786, -0.00120003, 0.0650933, 0.847009, -0.00272277
1193.5874573800001599, -0.00189004, -0.00317826, -0.00119995, 0.0650811, 0.848788, -0.00273129
1193.6209237130001384, -0.00189056, -0.00317761, -0.00119953, 0.0650742, 0.850656, -0.00289493
1193.6542400470002576, -0.00189043, -0.0031773, -0.00119931, 0.0650715, 0.851248, -0.00305867
1193.6875563800001601, -0.00189043, -0.00317836, -0.00120008, 0.0650862, 0.849689, -0.00280441
1193.720872718000237, -0.00189027, -0.00317897, -0.00120028, 0.0651194, 0.847805, -0.00262575
1193.7541890180000337, -0.00189019, -0.00317924, -0.00120046, 0.0651293, 0.847312, -0.00265313
1193.7875053800000842, -0.00189016, -0.00317978, -0.00120037, 0.065166, 0.846238, -0.00279926
1193.820821713000214, -0.00189051, -0.00318012, -0.00119996, 0.0651934, 0.845783, -0.00294713
1193.8541380470001059, -0.00189092, -0.0031806, -0.00119974, 0.0652467, 0.844693, -0.00316447
1193.8874543460001405, -0.00189086, -0.00318094, -0.00119982, 0.0652911, 0.843815, -0.00357844
1193.9207707130001381, -0.00189046, -0.00318154, -0.00119993, 0.0653477, 0.843068, -0.00409078
1193.9542370460001166, -0.00189038, -0.00318189, -0.00120005, 0.0654024, 0.842197, -0.00439297
1193.9875533800002358, -0.00189062, -0.00318096, -0.00119934, 0.0654582, 0.841233, -0.00488566
1194.0208697130001383, -0.00189049, -0.00318123, -0.00119968, 0.0654824, 0.840832, -0.00510333
1194.0541860460000407, -0.00189071, -0.00318024, -0.0011994, 0.0655482, 0.839607, -0.0057393
1194.08750238000016, -0.00189173, -0.00317892, -0.00119832, 0.0654945, 0.839954, -0.00584037
1194.1208186850001312, -0.00189125, -0.00317768, -0.00119726, 0.065507, 0.839674, -0.00606261
1194.1541350180000336, -0.00189039, -0.00317596, -0.00119602, 0.0655023, 0.839575, -0.00602434
1194.187451375000137, -0.0018894, -0.00317885, -0.0011983, 0.0654673, 0.840494, -0.00583129
1194.2207677130002139, -0.0018895, -0.00317894, -0.00119838, 0.0654393, 0.840572, -0.00578885
1194.254084013000238, -0.00188936, -0.00317935, -0.00119904, 0.0653875, 0.840537, -0.00558524
1194.2874003320000611, -0.00188908, -0.00318096, -0.0012001, 0.0652824, 0.840897, -0.00595247
1194.3208667130002141, -0.00188917, -0.00318106, -0.00120018, 0.0651931, 0.841133, -0.00640282
1194.3541830460001165, -0.00188916, -0.00318176, -0.00119998, 0.0651178, 0.841193, -0.00671442
1194.3875015560001884, -0.0018893, -0.00318189, -0.00119998, 0.0650689, 0.841221, -0.00693719
1194.4208156800000324, -0.00188935, -0.00318154, -0.00120019, 0.0651623, 0.841089, -0.00615847
1194.4541320460000406, -0.00188998, -0.00318166, -0.00120014, 0.0652365, 0.841161, -0.00602262
1194.4874483800001599, -0.00189039, -0.00318117, -0.00119976, 0.0652435, 0.841114, -0.00586826
1194.5207646800001839, -0.00189076, -0.00318106, -0.00119974, 0.0652629, 0.841136, -0.00583321
1194.5540810180000335, -0.00189118, -0.0031807, -0.00120013, 0.065251, 0.84109, -0.00585208
1194.5873973510001633, -0.00189156, -0.00318016, -0.0011997, 0.0652829, 0.841076, -0.00570233
1194.6207136800001081, -0.00189159, -0.00317993, -0.00119893, 0.0652907, 0.841069, -0.00577859
1194.654179989000113, -0.00189171, -0.00317974, -0.00119865, 0.0653038, 0.841003, -0.00588776
1194.6874963510001635, -0.00189174, -0.00317984, -0.00119854, 0.0652346, 0.840982, -0.00591647
1194.720812713000214, -0.00189206, -0.00317967, -0.00119794, 0.0652598, 0.840834, -0.00582624
1194.7541290460001164, -0.00189243, -0.00318022, -0.00119819, 0.0653315, 0.840873, -0.0057962
1194.7874453510000876, -0.00189279, -0.00317992, -0.00119757, 0.0653751, 0.840791, -0.00601621
1194.8207616840002174, -0.00189236, -0.00317893, -0.00119685, 0.0656866, 0.841201, -0.00688191
1194.8540780180001093, -0.0018929, -0.00317841, -0.00119654, 0.0657314, 0.840955, -0.00706477
1194.8873943270000382, -0.00189375, -0.00317764, -0.00119582, 0.0658398, 0.840329, -0.00765064
1194.9207107130000622, -0.00189355, -0.00317704, -0.00119518, 0.0660431, 0.839979, -0.00908432
1194.9540270130000863, -0.00189332, -0.00317693, -0.00119495, 0.0661002, 0.840021, -0.00953325
1194.9873433510001632, -0.00189362, -0.00317585, -0.00119423, 0.0662535, 0.839208, -0.0109064
1195.020809651000036, -0.0018935, -0.00317555, -0.00119389, 0.066298, 0.839037, -0.0113708
1195.0541260460001922, -0.00189345, -0.00317504, -0.00119356, 0.0664441, 0.838549, -0.0128468
1195.0874423840000418, -0.00189377, -0.00317398, -0.00119253, 0.066595, 0.837483, -0.0143493
1195.1207587320002403, -0.00189425, -0.0031731, -0.00119144, 0.066764, 0.8371, -0.015715
1195.154075013000238, -0.00189371, -0.00317393, -0.00119188, 0.0665856, 0.837744, -0.0143878
1195.1873913510000875, -0.00189306, -0.00317606, -0.00119303, 0.0663719, 0.838144, -0.0126508
1195.220707713000138, -0.00189312, -0.00317734, -0.00119408, 0.06627, 0.838452, -0.0118421
1195.2540240460000405, -0.00189242, -0.00317696, -0.00119389, 0.0663049, 0.837467, -0.0124731
1195.2873403800001597, -0.00189132, -0.00317665, -0.00119391, 0.06618, 0.838487, -0.012416
1195.3206574130001627, -0.00189117, -0.00317863, -0.00119469, 0.0660436, 0.84188, -0.0127478
1195.3541229890001887, -0.00189099, -0.00317967, -0.00119545, 0.065987, 0.84246, -0.0127023
1195.3874393460000647, -0.00189076, -0.00318149, -0.00119645, 0.0659259, 0.843845, -0.0128503
1195.4207556840001416, -0.00189109, -0.00318273, -0.00119682, 0.0659555, 0.845555, -0.0135771
1195.4540720460001921, -0.00189197, -0.00318369, -0.00119727, 0.0659785, 0.847237, -0.0145026
1195.4873883460002162, -0.00189184, -0.00318387, -0.00119769, 0.0660006, 0.847925, -0.0148
1195.5207046510001874, -0.00189182, -0.00318361, -0.00119766, 0.0659938, 0.847696, -0.0146592
1195.5540210130002379, -0.00189201, -0.00318333, -0.00119766, 0.0659926, 0.847491, -0.0145095
1195.5873373460001403, -0.00189236, -0.00318308, -0.00119762, 0.065982, 0.847007, -0.0142516
1195.6206536840002173, -0.00189338, -0.00318395, -0.00119833, 0.06599, 0.846449, -0.0136915
1195.6539700460000404, -0.00189335, -0.00318449, -0.00119868, 0.0660129, 0.846376, -0.0134306
1195.6872863510002389, -0.001893, -0.00318479, -0.00119898, 0.0660006, 0.846291, -0.0135696
1195.7207526510001117, -0.00189266, -0.00318358, -0.0011981, 0.0659433, 0.846636, -0.0140782
1195.7540690130001622, -0.00189321, -0.00318345, -0.00119781, 0.0658692, 0.846478, -0.0144219
1195.7873853800001598, -0.00189334, -0.00318388, -0.00119813, 0.0658498, 0.846823, -0.0143954
1195.820702294000057, -0.00189387, -0.00318394, -0.00119837, 0.0657875, 0.846671, -0.0142509
1195.854018046000192, -0.0018943, -0.00318477, -0.00119895, 0.0658878, 0.846703, -0.0136771
1195.8873343800000839, -0.00189419, -0.00318569, -0.00119991, 0.066016, 0.846828, -0.0134435
1195.9206506560001344, -0.00189428, -0.00318558, -0.00119981, 0.0661254, 0.847408, -0.0133983
1195.9539670460001162, -0.00189418, -0.00318647, -0.00120008, 0.0662519, 0.847991, -0.0138188
1195.9872833800002354, -0.00189433, -0.00318772, -0.00119991, 0.0663922, 0.848002, -0.0146189
1196.0205996800000321, -0.0018949, -0.00318863, -0.00119996, 0.0665683, 0.848352, -0.0148263
1196.0540660130002379, -0.00189482, -0.00318889, -0.0012003, 0.0666167, 0.848495, -0.0147368
1196.0873823510000875, -0.00189522, -0.00318925, -0.00120026, 0.0666586, 0.848454, -0.0150616
1196.120698713000138, -0.00189536, -0.00318943, -0.00120047, 0.0666866, 0.84878, -0.0149479
1196.1540150130001621, -0.00189543, -0.0031897, -0.00120093, 0.066693, 0.849164, -0.0146005
1196.1873313790001703, -0.00189535, -0.0031909, -0.00120158, 0.0668033, 0.848194, -0.0155903
1196.2206477130000621, -0.00189534, -0.00319219, -0.00120213, 0.0669275, 0.847396, -0.0164353
1196.2539640180000333, -0.00189523, -0.00319122, -0.00120177, 0.0669974, 0.84643, -0.0172285
1196.2872807460000786, -0.001896, -0.00319142, -0.00120174, 0.0670821, 0.84542, -0.0181247
1196.3205975460000445, -0.00189542, -0.00319222, -0.00120233, 0.0672732, 0.843439, -0.0195506
1196.3539130180001848, -0.00189618, -0.00319332, -0.00120293, 0.0671792, 0.843218, -0.0193708
1196.3872293460001401, -0.00189671, -0.0031943, -0.00120359, 0.067111, 0.842834, -0.0189752
1196.4206959750001715, -0.00190072, -0.00319735, -0.00120436, 0.0669422, 0.842452, -0.0189006
1196.4540120460001162, -0.00190323, -0.00319805, -0.00120452, 0.0668793, 0.842202, -0.0190116
1196.4873283790002461, -0.00190311, -0.00319785, -0.00120474, 0.0668732, 0.841373, -0.0182584
1196.5206468890000906, -0.00190206, -0.00319271, -0.00120268, 0.0669157, 0.84172, -0.0186739
1196.553961013000162, -0.00190223, -0.00319297, -0.00120247, 0.0668644, 0.841895, -0.0188386
1196.5872773790001702, -0.00190214, -0.00319334, -0.0012027, 0.0667825, 0.841467, -0.0186063
1196.6205944840000939, -0.00190252, -0.00319338, -0.00120285, 0.0667502, 0.841328, -0.0184933
1196.6539100460001919, -0.00190204, -0.0031929, -0.00120271, 0.066745, 0.840753, -0.0170481
1196.687226351000163, -0.00190193, -0.00319328, -0.00120296, 0.0667045, 0.84011, -0.0161665
1196.7205427130002136, -0.00190182, -0.00319355, -0.00120334, 0.0665719, 0.838501, -0.0145503
1196.7540090790000704, -0.00190187, -0.0031933, -0.00120329, 0.0664188, 0.83631, -0.0124186
1196.7873253790000945, -0.00190221, -0.00319343, -0.0012031, 0.0663821, 0.835475, -0.011249
1196.8206416790001185, -0.0019032, -0.00319334, -0.00120274, 0.0663735, 0.835032, -0.0109966
1196.8539580460001162, -0.00190483, -0.00319386, -0.00120249, 0.0663678, 0.835052, -0.0117094
1196.8872743510000873, -0.00190576, -0.003194, -0.00120262, 0.0664434, 0.835157, -0.0101999
1196.9205907130001378, -0.00190599, -0.00319438, -0.00120273, 0.066512, 0.835247, -0.00841685
1196.9539070460000403, -0.00190637, -0.00319466, -0.0012028, 0.0665562, 0.835483, -0.00784946
1196.9872233790001701, -0.00190654, -0.00319404, -0.00120273, 0.0664319, 0.834779, -0.00903623
1197.020539713000062, -0.00190706, -0.00319416, -0.00120292, 0.0665128, 0.834776, -0.00807154
1197.0538560460001918, -0.00190722, -0.00319413, -0.00120253, 0.0665947, 0.83509, -0.00758373
1197.0873223790001703, -0.00190738, -0.00319413, -0.001202, 0.0666872, 0.835897, -0.00742452
1197.1206386510000357, -0.00190755, -0.00319456, -0.00120169, 0.0668604, 0.837447, -0.00744989
1197.1539550170000439, -0.00190852, -0.00319484, -0.00120131, 0.067024, 0.838167, -0.0086003
1197.1872713510001631, -0.00190898, -0.00319459, -0.00120033, 0.0671904, 0.838835, -0.00911481
1197.2205877130002136, -0.00190936, -0.00319418, -0.00119972, 0.0674954, 0.839475, -0.0100081
1197.2539040460001161, -0.00191104, -0.00319381, -0.0011986, 0.0676331, 0.839584, -0.0109371
1197.2872203790002459, -0.00191137, -0.00319354, -0.001198, 0.0677081, 0.839862, -0.0117003
1197.3205366790000426, -0.00191128, -0.00319347, -0.00119788, 0.0678695, 0.840984, -0.0122866
1197.3538530460000402, -0.00191151, -0.00319296, -0.00119842, 0.0680101, 0.840659, -0.0128374
1197.38716937900017, -0.0019125, -0.00319317, -0.00119697, 0.0681235, 0.841652, -0.0141276
1197.4204857130000619, -0.00191241, -0.00319306, -0.00119675, 0.0682055, 0.84221, -0.0142478
1197.4539520460000404, -0.00191239, -0.00319333, -0.00119688, 0.0680901, 0.841708, -0.0139227
1197.4872683460000644, -0.00191243, -0.00319384, -0.00119643, 0.0681519, 0.842969, -0.0140467
1197.520584713000062, -0.0019121, -0.00319497, -0.00119727, 0.0680486, 0.843528, -0.0138437
1197.5539010460001919, -0.00191068, -0.00319912, -0.00119954, 0.0679991, 0.846005, -0.0137899
1197.5872173460002159, -0.00191065, -0.00320045, -0.00119996, 0.0679408, 0.846504, -0.0143121
1197.6205337130002135, -0.00190997, -0.00320252, -0.00120137, 0.0679593, 0.847913, -0.0147948
1197.6538500130002376, -0.0019096, -0.00320491, -0.00120239, 0.0679358, 0.84886, -0.01556
1197.6871663510000872, -0.00190935, -0.00320423, -0.00120209, 0.0680606, 0.85006, -0.0150476
1197.720482684000217, -0.00190949, -0.00320429, -0.00120211, 0.06807, 0.850325, -0.0153626
1197.7537990460000401, -0.00190997, -0.00320391, -0.00120205, 0.0680766, 0.850361, -0.0153002
1197.7872653840001931, -0.00191086, -0.00320317, -0.00120161, 0.068151, 0.851216, -0.0152589
1197.8205817130001378, -0.00191149, -0.00320307, -0.00120131, 0.0681011, 0.850863, -0.0155525
1197.8538980130001619, -0.00191168, -0.0032025, -0.00120118, 0.0681767, 0.851398, -0.0147012
1197.8872143790001701, -0.00191206, -0.00320282, -0.00120114, 0.0680875, 0.85072, -0.0157753
1197.920530713000062, -0.00191273, -0.00320279, -0.00120098, 0.0680336, 0.850298, -0.0163395
1197.953847013000086, -0.00191287, -0.00320274, -0.00120099, 0.0680872, 0.850806, -0.0158871
1197.9871633460002158, -0.00191275, -0.00320224, -0.00120096, 0.0682441, 0.852226, -0.0148449
1198.0204797130002135, -0.00191255, -0.00320172, -0.00120009, 0.0684119, 0.853775, -0.013944
1198.0537960460001159, -0.00191245, -0.00320159, -0.00119957, 0.0685669, 0.855221, -0.0133616
1198.0871123510000871, -0.00191249, -0.00320132, -0.0011994, 0.0686188, 0.855663, -0.0133591
1198.1204287130001376, -0.00191242, -0.00320124, -0.00119971, 0.0686692, 0.856089, -0.0133748
1198.1538950170001954, -0.00191206, -0.003201, -0.0011998, 0.0687057, 0.856343, -0.0134505
1198.1872113790002459, -0.00191334, -0.0032005, -0.0011979, 0.0689123, 0.857952, -0.0139295
1198.2205276790000426, -0.00191393, -0.00320028, -0.00119762, 0.0689467, 0.858049, -0.014203
1198.2538440130001618, -0.00191428, -0.00319918, -0.00119673, 0.0691085, 0.859318, -0.0144688
1198.28716037900017, -0.00191441, -0.00319852, -0.00119649, 0.0692138, 0.860056, -0.0147426
1198.3204766790001941, -0.00191489, -0.00319728, -0.00119584, 0.0693635, 0.860745, -0.0154599
1198.3537929890001124, -0.00191483, -0.00319589, -0.00119485, 0.0695435, 0.862044, -0.0158011
1198.3871093460002157, -0.00191445, -0.0031945, -0.00119504, 0.0696635, 0.8627, -0.0156964
1198.4204257120002239, -0.00191419, -0.00319358, -0.00119527, 0.0697496, 0.863134, -0.0156056
1198.453742012000248, -0.00191439, -0.00319182, -0.0011945, 0.0698792, 0.863898, -0.0159182
1198.4872083790000943, -0.00191423, -0.00319306, -0.0011955, 0.0697676, 0.862872, -0.0157671
1198.5205246840000655, -0.00191434, -0.00319375, -0.00119609, 0.069603, 0.860984, -0.0155416
1198.5538410170001953, -0.00191489, -0.00319588, -0.00119644, 0.0691563, 0.855514, -0.0162436
1198.5871573790002458, -0.00191533, -0.00320304, -0.00119901, 0.0685104, 0.848441, -0.0191848
1198.6204736790000425, -0.00191544, -0.00320456, -0.00119944, 0.0683715, 0.846957, -0.0196063
1198.653789984000241, -0.00191542, -0.00320837, -0.0012012, 0.0680514, 0.843071, -0.0216275
1198.6871063790001699, -0.00191541, -0.00321154, -0.00120273, 0.0676028, 0.837239, -0.0236286
1198.7204227120000724, -0.00191578, -0.00321213, -0.00120223, 0.0673745, 0.834129, -0.0248716
1198.7537390120000964, -0.00191599, -0.00321116, -0.00120154, 0.0672824, 0.832819, -0.0240733
1198.7870553980001205, -0.00191661, -0.0032091, -0.00120028, 0.0673396, 0.833705, -0.0221345
1198.8203717120002239, -0.0019169, -0.00320995, -0.00120008, 0.0673506, 0.833829, -0.0235522
1198.8538379890001124, -0.00191684, -0.00321091, -0.00120087, 0.0673674, 0.834085, -0.0249594
1198.8871543460002158, -0.00191718, -0.00321078, -0.00120084, 0.0673689, 0.83425, -0.0247497
1198.920470712000224, -0.00191797, -0.00321096, -0.00120063, 0.0673099, 0.833463, -0.0257101
1198.9537870460001159, -0.00191874, -0.0032106, -0.00120008, 0.0672526, 0.832694, -0.0264828
1198.9871033460001399, -0.00191874, -0.00321119, -0.00120059, 0.0673007, 0.83332, -0.0257064
1199.0204197120001481, -0.00191903, -0.00321151, -0.00120095, 0.067342, 0.833822, -0.0252616
1199.05373604600004, -0.00191889, -0.00321122, -0.00120065, 0.0673968, 0.834185, -0.0250077
1199.0870546170001489, -0.00191873, -0.00321108, -0.00120072, 0.0674647, 0.834496, -0.0248588
1199.120368684000141, -0.00191893, -0.00321156, -0.00120095, 0.0675565, 0.83517, -0.0244561
1199.1536850170000434, -0.00191899, -0.00321191, -0.00120127, 0.0676183, 0.835695, -0.0243363
1199.18715137900017, -0.00191907, -0.00321163, -0.00120111, 0.0676983, 0.836278, -0.0245538
1199.220467679000194, -0.00191937, -0.00321224, -0.00120171, 0.0678224, 0.837016, -0.0251809
1199.2537840460001917, -0.00191951, -0.00321281, -0.00120241, 0.0680333, 0.838177, -0.0262984
1199.2871003460002157, -0.00191959, -0.00321317, -0.00120289, 0.0681436, 0.838636, -0.0269678
1199.3204166790001182, -0.00192054, -0.00321358, -0.00120297, 0.0682228, 0.839176, -0.027786
1199.353733012000248, -0.00192082, -0.003214, -0.00120325, 0.0683956, 0.83979, -0.0293116
1199.3870493790002456, -0.00192095, -0.00321441, -0.00120326, 0.0684607, 0.839869, -0.0298779
1199.4203657120001481, -0.00192131, -0.00321529, -0.0012032, 0.0683593, 0.839513, -0.0291685
1199.4536820460000399, -0.0019218, -0.00321601, -0.00120322, 0.0684212, 0.839859, -0.029781
1199.4869983790001697, -0.00192172, -0.00321602, -0.0012028, 0.0684913, 0.840283, -0.0304195
1199.5203147120000722, -0.00192128, -0.00321641, -0.00120358, 0.0684877, 0.840268, -0.0300138
1199.5537810120001723, -0.00192106, -0.00321642, -0.00120343, 0.0686038, 0.840777, -0.0307764
1199.5870973460000641, -0.00192237, -0.00321915, -0.00120391, 0.0683096, 0.838701, -0.0300413
1199.6204137120000723, -0.00192407, -0.0032201, -0.00120419, 0.0680379, 0.837154, -0.029661
1199.6537300460001916, -0.00192459, -0.00322082, -0.00120419, 0.0679401, 0.836382, -0.0297421
1199.6870463460002156, -0.0019249, -0.00322143, -0.00120468, 0.067812, 0.835329, -0.029059
1199.7203627120002238, -0.0019252, -0.00322077, -0.00120432, 0.0678615, 0.835789, -0.0290417
1199.7536789840000893, -0.0019257, -0.00322012, -0.00120371, 0.0677853, 0.835014, -0.0287151
1199.7869953460001398, -0.00192611, -0.00322045, -0.0012037, 0.067732, 0.834448, -0.0289477
1199.8203116790000422, -0.00192631, -0.00321964, -0.00120354, 0.0676279, 0.833365, -0.028807
1199.8536280460000398, -0.00192657, -0.00321842, -0.001203, 0.0676863, 0.834084, -0.0284587
1199.8870943790002457, -0.00192817, -0.00321867, -0.00120278, 0.0674867, 0.83179, -0.0289305
1199.9204106790000424, -0.00192959, -0.00322019, -0.00120376, 0.067397, 0.830996, -0.0281197
1199.95372704600004, -0.00193015, -0.00322088, -0.00120399, 0.0675722, 0.833391, -0.0267526
1199.9870438360001117, -0.00192998, -0.00322163, -0.00120438, 0.0677515, 0.835637, -0.0258337
1200.0203596650001145, -0.00193029, -0.00322163, -0.0012046, 0.0679724, 0.838482, -0.0250501
1200.0536760460001915, -0.00193051, -0.00322151, -0.00120426, 0.0681025, 0.840202, -0.0245942
1200.0869923790000939, -0.00193094, -0.00322064, -0.00120334, 0.0681412, 0.840668, -0.0244392
1200.1203087120002237, -0.00193092, -0.00322048, -0.00120317, 0.0682518, 0.842062, -0.0241908
1200.1536250120002478, -0.00193044, -0.00322012, -0.00120312, 0.0683776, 0.843641, -0.023822
1200.1869413790002454, -0.00193161, -0.00321998, -0.00120245, 0.0687796, 0.848396, -0.0242148
1200.2204077120002239, -0.00193186, -0.00321971, -0.00120221, 0.0688265, 0.848736, -0.0244345
1200.253723988000047, -0.00193239, -0.00321938, -0.00120188, 0.0689707, 0.849754, -0.0250773
1200.2870403790002456, -0.00193287, -0.00321821, -0.00120073, 0.0691662, 0.851237, -0.0261022
1200.320356712000148, -0.00193305, -0.00321805, -0.00120046, 0.0692285, 0.851835, -0.0260869
1200.3536730170001192, -0.00193338, -0.00321762, -0.00119995, 0.0694539, 0.853796, -0.0270873
1200.3869893790001697, -0.00193317, -0.00321839, -0.00120033, 0.0694887, 0.854361, -0.0273028
1200.4203056790001938, -0.00193328, -0.00321802, -0.00119979, 0.0696988, 0.85622, -0.0283952
1200.4536220170000433, -0.00193317, -0.00321819, -0.00119961, 0.0698962, 0.858195, -0.0295988
1200.4869383220002419, -0.00193322, -0.00321866, -0.00119954, 0.0699245, 0.858474, -0.0299933
1200.5202547120002237, -0.00193357, -0.00321891, -0.0012, 0.0698383, 0.857807, -0.029214
1200.5535710120002477, -0.00193299, -0.00321743, -0.00119973, 0.0699991, 0.858549, -0.0300807
1200.5870373690001998, -0.00193306, -0.00321673, -0.00119914, 0.07043, 0.861982, -0.0324078
1200.6203536790001181, -0.00193339, -0.0032172, -0.00120022, 0.0706687, 0.863742, -0.0334595
1200.653670017000195, -0.00193307, -0.00321665, -0.00119983, 0.070926, 0.866362, -0.0345599
1200.6869863790002455, -0.00193333, -0.00321671, -0.00119945, 0.0708548, 0.86602, -0.0344112
1200.7203027120001479, -0.0019333, -0.00321678, -0.0011995, 0.0708168, 0.86572, -0.0344288
1200.7536190450000504, -0.00193353, -0.00321626, -0.00119902, 0.0706973, 0.864685, -0.0344753
1200.7869353790001696, -0.00193352, -0.0032169, -0.00119939, 0.0704632, 0.862786, -0.0347053
1200.8202517120000721, -0.00193386, -0.00321686, -0.00119955, 0.0703202, 0.861255, -0.0343334
1200.8535680120000961, -0.001934, -0.00321671, -0.00119955, 0.0701712, 0.859564, -0.0343462
1200.8868843790000938, -0.00193421, -0.00321687, -0.00119944, 0.0699668, 0.857463, -0.0352793
1200.920350684000141, -0.00193448, -0.00321692, -0.00119941, 0.0698117, 0.855926, -0.0358683
1200.9536670450002021, -0.00193479, -0.00321674, -0.00119917, 0.0697256, 0.854982, -0.0359292
1200.9869833170000675, -0.00193501, -0.0032164, -0.0011988, 0.0696691, 0.854579, -0.0362927
1201.0202997120002237, -0.00193519, -0.00321567, -0.00119838, 0.0694915, 0.852718, -0.0367378
1201.0536160450001262, -0.00193528, -0.00321566, -0.00119881, 0.069369, 0.851206, -0.0367605
1201.0869323790002454, -0.0019354, -0.00321576, -0.00119888, 0.069276, 0.850077, -0.0364853
1201.1202486790000421, -0.00193534, -0.00321593, -0.00119883, 0.0693404, 0.850718, -0.0361778
1201.1535650450000503, -0.00193548, -0.00321747, -0.00120037, 0.0696299, 0.853549, -0.0355296
1201.1868813500002489, -0.00193554, -0.00321771, -0.00120032, 0.0697327, 0.854591, -0.0354775
1201.2201976840001407, -0.00193595, -0.00321746, -0.0012, 0.0698391, 0.855036, -0.0360463
1201.2535140450002018, -0.00193696, -0.0032186, -0.00120021, 0.0701386, 0.857768, -0.0368135
1201.2869803790001697, -0.00193747, -0.00321846, -0.00119984, 0.0701724, 0.857827, -0.0369578
1201.3202966830001515, -0.00193797, -0.0032182, -0.00119931, 0.0700993, 0.856279, -0.0372936
1201.353613045000202, -0.00193913, -0.00321709, -0.00119783, 0.0703314, 0.857917, -0.0385639
1201.3869293790000938, -0.00193843, -0.00321603, -0.0011968, 0.0704301, 0.858672, -0.0392456
1201.4202457120002236, -0.00193827, -0.00321589, -0.00119688, 0.070495, 0.859026, -0.0396731
1201.4535620450001261, -0.00193807, -0.00321575, -0.0011966, 0.0704912, 0.859028, -0.0397526
1201.4868783790002453, -0.00193822, -0.00321554, -0.00119634, 0.0706495, 0.860105, -0.0409519
1201.520194679000042, -0.001938, -0.00321509, -0.00119603, 0.0707587, 0.860611, -0.0420785
1201.553511017000119, -0.00193811, -0.00321505, -0.00119622, 0.0706521, 0.859323, -0.0415615
1201.5868273790001695, -0.00193793, -0.00321511, -0.00119721, 0.0705036, 0.858097, -0.0403989
1201.6202936830002272, -0.00193822, -0.00321506, -0.00119658, 0.0704698, 0.857881, -0.0405005
1201.6536100450000504, -0.00193834, -0.00321578, -0.00119719, 0.0704478, 0.857986, -0.0400966
1201.6869263450000744, -0.00193853, -0.0032164, -0.00119784, 0.0703624, 0.857604, -0.0394079
1201.7202426830001514, -0.00193888, -0.00321647, -0.00119715, 0.0704549, 0.85873, -0.0398015
1201.7535590120000961, -0.00193892, -0.00321825, -0.00119835, 0.0700662, 0.854643, -0.0392358
1201.7868753790000937, -0.001939, -0.00321824, -0.00119829, 0.0700172, 0.854071, -0.0392576
1201.8201916790001178, -0.00193886, -0.00321877, -0.00119856, 0.0699464, 0.853256, -0.0394319
1201.853508045000126, -0.00193832, -0.00321939, -0.00119912, 0.069859, 0.852158, -0.0395615
1201.8868243790002452, -0.00193817, -0.00321921, -0.00119911, 0.0697764, 0.851066, -0.0397476
1201.9201406790000419, -0.00193796, -0.00321986, -0.0011991, 0.0695751, 0.848329, -0.0407062
1201.9534570170001189, -0.00193733, -0.00321978, -0.00119923, 0.0692797, 0.8442, -0.0417706
1201.9869233450001502, -0.00193718, -0.00321957, -0.00119916, 0.0691821, 0.842779, -0.0424041
