time, bias_gyr_x, bias_gyr_y, bias_gyr_z, bias_acc_x, bias_acc_y, bias_acc_z
-1, 0, 0, 0, 0, 0, 0
780.75935576500000934, 0, 0, 0, 0, 0, 0
780.79267210299997259, -0.01309, -0.0100598, 0.00102335, -0.000142507, 6.60128e-05, -8.67542e-05
780.8259884650000231, -0.00757397, -0.00486337, -0.000446746, -0.00535857, 0.000922947, 0.000995968
780.85930478900002072, -0.00529799, -0.00517729, -0.000392461, -0.00687175, 0.000170517, 0.00154534
780.89262113200004478, -0.00374684, -0.00426648, -0.000950094, -0.0266362, -0.000647155, 0.00612939
780.92593743600002654, -0.00348623, -0.00276431, -0.0013195, -0.0584292, -0.0018896, 0.0133974
780.95925376499997128, -0.00288782, -0.00362174, -0.00136466, -0.0364927, -0.00124384, 0.00859579
780.99257007400001385, -0.00268598, -0.00362106, -0.0012977, -0.056398, -0.00173835, 0.013052
781.02603643199995531, -0.00268186, -0.00330921, -0.00125398, -0.0755141, -0.00201034, 0.0172409
781.05935279799996351, -0.00261446, -0.00341849, -0.00121325, -0.0683446, -0.002004, 0.0156947
781.09266913199996907, -0.00266038, -0.00317798, -0.00119671, -0.0778748, -0.00189173, 0.0177145
781.12598540800001956, -0.00273687, -0.00308158, -0.00121553, -0.0792371, -0.00185763, 0.0180005
781.15930179800000133, -0.00271755, -0.00309253, -0.00120778, -0.079101, -0.00186228, 0.0179639
781.19261813200000688, -0.00270287, -0.00292878, -0.00121068, -0.0841153, -0.0015345, 0.0189934
781.22593443200003094, -0.0026005, -0.00286353, -0.00120651, -0.0855427, -0.00140399, 0.0192917
781.25925076999999419, -0.00235852, -0.00279132, -0.00126208, -0.0872139, -0.00122692, 0.0196467
781.29256713200004469, -0.00213007, -0.00259481, -0.00131933, -0.0924234, -0.000611709, 0.0207773
781.32588343199995506, -0.00194277, -0.00256737, -0.00132339, -0.0912706, -0.000760379, 0.0205241
781.35919976499997119, -0.00181516, -0.00264601, -0.00132383, -0.0878488, -0.00123622, 0.0197171
781.39266610300001048, -0.0017552, -0.002575, -0.00132527, -0.0895836, -0.000972839, 0.020115
781.42598243199995522, -0.00174499, -0.00238697, -0.00128288, -0.0934767, -0.000375006, 0.0210738
781.45929876499997135, -0.001761, -0.0021994, -0.00127072, -0.0953174, -8.02184e-05, 0.0215336
781.49261513199996898, -0.00176097, -0.00199945, -0.00124086, -0.0961022, 5.69735e-05, 0.0217575
781.52593143599995074, -0.00169525, -0.00187546, -0.00122713, -0.0956687, 5.76519e-06, 0.0217003
781.55924776500000917, -0.00166902, -0.00171704, -0.00121167, -0.096061, 8.15587e-05, 0.021895
781.59256413200000679, -0.00164817, -0.00165547, -0.00121582, -0.0944743, -0.000158909, 0.0213316
781.62588043599998855, -0.00158374, -0.00156526, -0.00121252, -0.0948135, -0.000109568, 0.0216052
781.65919679800003905, -0.00158552, -0.00155885, -0.0012151, -0.0926676, -0.000456363, 0.0206138
781.69251310300001023, -0.00154364, -0.00164201, -0.00121076, -0.0888688, -0.00102607, 0.0186552
781.72597943599998871, -0.00149935, -0.00167503, -0.00120545, -0.0882973, -0.000967582, 0.0181336
781.75929576500004714, -0.00146792, -0.00164955, -0.00123648, -0.0907608, -0.000417047, 0.0195129
781.79261207000001832, -0.00144817, -0.00167433, -0.0012306, -0.0906117, -0.000306975, 0.019431
781.82592908900005568, -0.00142944, -0.00167262, -0.00124059, -0.0914655, -2.65748e-05, 0.0199489
781.85925069799998255, -0.00139787, -0.00168908, -0.00122474, -0.0911435, -2.55517e-05, 0.0200025
781.89256110300004821, -0.00134511, -0.00172789, -0.00120469, -0.0902674, -0.000129191, 0.0196859
781.92587776000004851, -0.00131582, -0.00175405, -0.00119768, -0.0907402, 8.30676e-06, 0.0199013
781.95919377400002759, -0.00131417, -0.00178031, -0.00118717, -0.0910689, 0.000171932, 0.0198234
781.99251013100001728, -0.00131213, -0.00182696, -0.00116148, -0.0904203, 0.000189577, 0.0189725
782.02582643100004134, -0.00132285, -0.0018691, -0.00113692, -0.0903888, 0.00032601, 0.018477
782.05914276500004689, -0.00132948, -0.00193937, -0.00109069, -0.0894796, 0.000282177, 0.0176966
782.09260913100001744, -0.00133424, -0.00196392, -0.00108546, -0.0903812, 0.000620586, 0.0185833
782.125925465000023, -0.00129431, -0.00199898, -0.00106458, -0.090233, 0.000471442, 0.01936
782.15924180299998625, -0.00125594, -0.00201398, -0.00105266, -0.0908321, 0.000339152, 0.0208595
782.1925580979999495, -0.00126226, -0.00205596, -0.00103621, -0.0909246, -4.10603e-05, 0.0212514
782.22587443600002644, -0.00124097, -0.00209027, -0.0010169, -0.0909715, -0.000370025, 0.0213271
782.25919079799996325, -0.00123318, -0.00212831, -0.000987057, -0.0911566, -0.000603372, 0.0212072
782.29250710300004812, -0.00123395, -0.0021716, -0.000955415, -0.0906583, -0.000865362, 0.0202008
782.32582343599995056, -0.00124498, -0.00219186, -0.000931603, -0.0913598, -0.000587347, 0.0198884
782.35913979800000106, -0.00126542, -0.00221328, -0.000908055, -0.0919281, -0.000220854, 0.0189143
782.39245609800002512, -0.00128589, -0.00225576, -0.000883484, -0.0911059, 0.000230914, 0.0169167
782.42592243599995072, -0.00128411, -0.00229057, -0.000863182, -0.0901421, 0.00065791, 0.0165115
782.45923879800000122, -0.00128804, -0.00232612, -0.000825941, -0.0888392, 0.000545094, 0.0164501
782.49255513100001735, -0.00128603, -0.00236263, -0.000785314, -0.0878331, 0.000658677, 0.0165173
782.52587146500002291, -0.00127741, -0.00236612, -0.000756125, -0.0881967, 0.000743982, 0.0177875
782.55918779800003904, -0.0012815, -0.00237528, -0.000728504, -0.088441, 0.000811044, 0.0179352
782.59250413600000229, -0.00128991, -0.00237225, -0.000705021, -0.0893711, 0.00115249, 0.0182835
782.62582040300003428, -0.00130001, -0.00236606, -0.000683229, -0.0905287, 0.00138142, 0.0185022
782.65913679799996316, -0.00131724, -0.00239199, -0.000661046, -0.0892565, 0.00114255, 0.0177186
782.69245309799998722, -0.00131967, -0.00242448, -0.000652304, -0.0878777, 0.000824381, 0.0176059
782.72576943599995047, -0.001319, -0.00244475, -0.000635025, -0.0872821, 0.00102589, 0.0179056
782.75908579800000098, -0.00131647, -0.0024577, -0.000603436, -0.0867402, 0.000371729, 0.0196557
782.79255210300004819, -0.00131546, -0.00248148, -0.000586552, -0.0845649, -0.00116747, 0.0216083
782.82586846499998501, -0.0013154, -0.002503, -0.000551477, -0.081352, -0.00318719, 0.0247971
782.85918479800000114, -0.00132911, -0.00252804, -0.000524153, -0.0798011, -0.00331349, 0.0280011
782.89250113100001727, -0.00133269, -0.00252147, -0.000525735, -0.0809706, -0.00218881, 0.0259741
782.92581742200002282, -0.0013359, -0.00250278, -0.000523639, -0.0834392, -0.00164071, 0.0224782
782.95913376900000458, -0.00132906, -0.00248465, -0.000525266, -0.0867241, -0.00185187, 0.0164061
782.99245013100005508, -0.00131919, -0.00245973, -0.000530952, -0.0880235, -0.00406167, 0.0137561
783.02576642200006063, -0.00130687, -0.00245898, -0.000521952, -0.0859503, -0.00644259, 0.0194947
783.059082764999971, -0.00129576, -0.00245023, -0.00050829, -0.0858651, -0.00678594, 0.0205797
783.09239913099997921, -0.0012864, -0.00244162, -0.000501809, -0.0864198, -0.00712106, 0.0200443
783.12586554599999999, -0.00127923, -0.00244088, -0.000514314, -0.0879431, -0.00947417, 0.0154347
783.15918176499997116, -0.00127402, -0.00244148, -0.000528925, -0.0894317, -0.0119846, 0.0105207
783.19249809799998729, -0.00127421, -0.00243698, -0.000530947, -0.0905675, -0.0147627, 0.00730705
783.22581443100000342, -0.00126769, -0.0024174, -0.000537061, -0.0932132, -0.0160031, 0.000634358
783.25913076500000898, -0.00126519, -0.00240921, -0.000541885, -0.0943563, -0.0198072, -0.00202587
783.29244707899999867, -0.00126355, -0.00240256, -0.000543486, -0.0957151, -0.024386, -0.00462837
783.32576343599998836, -0.00126125, -0.00240305, -0.000541133, -0.0964979, -0.0310792, -0.00548486
783.35907979800003886, -0.00125665, -0.00241803, -0.000534553, -0.0933673, -0.0290025, 0.00362028
783.39239613100005499, -0.00125581, -0.00242722, -0.000523101, -0.0898365, -0.0256635, 0.0140917
783.4257124030000341, -0.00125571, -0.00242229, -0.000521522, -0.0893159, -0.0250646, 0.0163668
783.45917876900000465, -0.0012535, -0.0024325, -0.000515464, -0.0854545, -0.0240821, 0.0265605
783.4924951030000102, -0.00125112, -0.00243673, -0.000513702, -0.0841962, -0.0248938, 0.0292703
783.52581143099996552, -0.00124736, -0.00243972, -0.000509256, -0.0822584, -0.0242, 0.0345883
783.55912779799996315, -0.00124592, -0.00245817, -0.000513378, -0.0809768, -0.0320052, 0.0323576
783.59244410300004802, -0.00124395, -0.00246479, -0.00052398, -0.0825313, -0.0312842, 0.0176949
783.62576043100000334, -0.00124286, -0.0024692, -0.000530433, -0.084142, -0.0342745, 0.00504648
783.65907676000006177, -0.00124271, -0.00247933, -0.000544908, -0.0876066, -0.0458972, -0.0175202
783.69239309800002502, -0.00124371, -0.00247793, -0.000551238, -0.0887687, -0.0491988, -0.028693
783.72570943599998827, -0.00124363, -0.00248474, -0.000538086, -0.0864341, -0.0581497, -0.0204421
783.7590257690000044, -0.00124402, -0.00248876, -0.000526921, -0.0853228, -0.0591197, -0.0163163
783.79234213100005491, -0.0012452, -0.00247379, -0.000510952, -0.0832736, -0.0461341, -0.0140329
783.82580846500002281, -0.00124418, -0.00246117, -0.000511314, -0.0848035, -0.0158819, -0.0177249
783.85912476900000456, -0.00124308, -0.00245615, -0.000522713, -0.089052, 0.00120602, -0.0335145
783.89244110300001012, -0.00124704, -0.00244694, -0.000526468, -0.0949182, -0.00496627, -0.0650024
783.92575746500006062, -0.00125011, -0.00244509, -0.000542051, -0.101046, -0.00350868, -0.0922479
783.9590737360000503, -0.00125398, -0.00243623, -0.000552552, -0.104289, 0.00785639, -0.106672
783.99239013099997919, -0.00125421, -0.00242132, -0.000567835, -0.109883, 0.0369823, -0.128367
784.02570646499998475, -0.00125425, -0.00240731, -0.000581008, -0.115529, 0.0741026, -0.147784
784.05902279800000088, -0.00125447, -0.00239641, -0.000590727, -0.120874, 0.114853, -0.16461
784.09233913100001701, -0.00125333, -0.00238703, -0.000603477, -0.12748, 0.163147, -0.185724
784.12565546500002256, -0.00125175, -0.00238686, -0.000605652, -0.134806, 0.218988, -0.206592
784.15912179800000104, -0.00124934, -0.00239126, -0.000586595, -0.140161, 0.268675, -0.218928
784.19243813100001717, -0.0012464, -0.00239475, -0.000563983, -0.14523, 0.312291, -0.231881
784.22575446400003329, -0.00124377, -0.00239598, -0.000554091, -0.152907, 0.364824, -0.254953
784.25907076900000447, -0.00124408, -0.0023892, -0.00054915, -0.157575, 0.398611, -0.269334
784.29238713100005498, -0.00124602, -0.00237244, -0.000562587, -0.160809, 0.426459, -0.279369
784.32570346399995742, -0.00125001, -0.00236552, -0.000593767, -0.160583, 0.428946, -0.277964
784.35901979799996298, -0.00125373, -0.00236295, -0.000632059, -0.159941, 0.428022, -0.274731
784.3923361309999791, -0.00125471, -0.00235458, -0.00065421, -0.16137, 0.438292, -0.278845
784.42565246399999523, -0.00125545, -0.00235419, -0.000636888, -0.164553, 0.448085, -0.29094
784.45896879800000079, -0.00125575, -0.0023654, -0.000598431, -0.170386, 0.459018, -0.313852
784.49228513100001692, -0.00125634, -0.00237077, -0.000557864, -0.175986, 0.466849, -0.33649
784.52575140299995837, -0.00125531, -0.00237196, -0.000527392, -0.17827, 0.46772, -0.347236
784.55906779800000095, -0.00125513, -0.00237897, -0.00049466, -0.178524, 0.463707, -0.351643
784.59238409800002501, -0.00125404, -0.00238565, -0.000472471, -0.179357, 0.462064, -0.357195
784.62570047400004114, -0.00125282, -0.00239498, -0.000471471, -0.175742, 0.459791, -0.345657
784.65901676900000439, -0.0012515, -0.0023963, -0.000476398, -0.169142, 0.45759, -0.323559
784.69233310300000994, -0.00125068, -0.0023902, -0.000484801, -0.164326, 0.456645, -0.307755
784.72564946399995733, -0.0012453, -0.00238243, -0.000476997, -0.166078, 0.453905, -0.315707
784.75896576399998139, -0.00123719, -0.00237964, -0.000468394, -0.16798, 0.45179, -0.324123
784.79228210200005833, -0.00123003, -0.00238146, -0.000460641, -0.167334, 0.45302, -0.324233
784.82559846399999515, -0.00122711, -0.00238064, -0.000456187, -0.165928, 0.456344, -0.321708
784.85906479799996305, -0.00122791, -0.00237949, -0.000446999, -0.164452, 0.460715, -0.319131
784.89238166400002683, -0.00122606, -0.00237823, -0.000445591, -0.163304, 0.463467, -0.316428
784.92569743599995036, -0.00122234, -0.00237767, -0.00044814, -0.160634, 0.46898, -0.309369
784.95901379800000086, -0.00122018, -0.00238263, -0.000451871, -0.15786, 0.476537, -0.302347
784.99233007400005135, -0.0012166, -0.00238985, -0.00044867, -0.157341, 0.478531, -0.301153
785.02564646400003312, -0.00121678, -0.00239968, -0.000467312, -0.155512, 0.482135, -0.294719
785.05896279800003867, -0.00121393, -0.00240063, -0.000493903, -0.152533, 0.487719, -0.287762
785.0922791310000548, -0.00121413, -0.00240253, -0.000518826, -0.150154, 0.492033, -0.283146
785.12559543600002598, -0.00121461, -0.00239918, -0.000547355, -0.148709, 0.493361, -0.280475
785.15891178300000774, -0.0012145, -0.00240808, -0.000547511, -0.147487, 0.494518, -0.279212
785.19222813099997893, -0.00121461, -0.00241919, -0.000529211, -0.146811, 0.494887, -0.278869
785.22569443099996533, -0.00121495, -0.00243103, -0.000513294, -0.146315, 0.494748, -0.27859
785.25901078799995503, -0.00121299, -0.00241841, -0.000511268, -0.145709, 0.490525, -0.279264
785.2923271020000584, -0.00120993, -0.00239634, -0.000535354, -0.146268, 0.491416, -0.280267
785.32564343599995027, -0.00120871, -0.0023851, -0.000551053, -0.1464, 0.487998, -0.282155
785.35896041700004844, -0.00121031, -0.00239775, -0.000561176, -0.146223, 0.482668, -0.283433
785.3922761310000169, -0.00121152, -0.00239926, -0.000586588, -0.146211, 0.473264, -0.286242
785.42559246400003303, -0.00121052, -0.00238723, -0.00059794, -0.146187, 0.465696, -0.288054
785.45890995499996734, -0.00121107, -0.00236951, -0.000608507, -0.146413, 0.458874, -0.290927
785.49222513100005472, -0.00121177, -0.00235316, -0.000630035, -0.147172, 0.465518, -0.292866
785.52554143099996509, -0.00121197, -0.0023331, -0.000645245, -0.14769, 0.47, -0.294387
785.55900776900000437, -0.00121356, -0.00232379, -0.000649924, -0.148212, 0.476617, -0.29547
785.5923241020000205, -0.00121687, -0.00231765, -0.000660612, -0.148999, 0.48656, -0.297055
785.62564046399995732, -0.00122087, -0.00231636, -0.000662251, -0.148622, 0.481946, -0.296059
785.65895676900004219, -0.00122245, -0.00231081, -0.000666849, -0.148958, 0.486616, -0.296688
785.692273130999979, -0.00122327, -0.00230482, -0.000679644, -0.149459, 0.494216, -0.29748
785.72558940199996869, -0.00122467, -0.00230024, -0.00067657, -0.150577, 0.504182, -0.30097
785.75890579800000069, -0.00122762, -0.00230264, -0.00067462, -0.151588, 0.512199, -0.304367
785.79222213100001682, -0.00123113, -0.00230894, -0.000668007, -0.152107, 0.51474, -0.306531
785.82553846400003295, -0.0012368, -0.00231902, -0.000663873, -0.15245, 0.51656, -0.308141
785.858854764000057, -0.00124088, -0.0023246, -0.000642055, -0.155171, 0.524212, -0.31984
785.89217109800006256, -0.00124281, -0.00232392, -0.000613964, -0.158246, 0.530677, -0.333157
785.92563746400003311, -0.00123995, -0.00231736, -0.000596647, -0.160863, 0.534904, -0.344448
785.95895479299997533, -0.00123599, -0.00231771, -0.000590987, -0.163691, 0.542309, -0.355777
785.99227013100005479, -0.00123716, -0.00231885, -0.000597061, -0.165024, 0.546613, -0.360787
786.02558646399995723, -0.0012391, -0.00231932, -0.000605983, -0.16231, 0.542514, -0.350213
786.0589027690000421, -0.00124233, -0.00232199, -0.000627659, -0.158382, 0.54212, -0.333651
786.09221909799998684, -0.0012423, -0.00232303, -0.000641098, -0.154919, 0.5416, -0.319571
786.1255354359999501, -0.00124189, -0.00233401, -0.000635453, -0.152005, 0.542614, -0.308585
786.1588517640000191, -0.00123949, -0.0023483, -0.00060847, -0.151145, 0.543708, -0.30664
786.19216813100001673, -0.00124054, -0.00235493, -0.000579289, -0.15406, 0.545056, -0.319059
786.22548446899997998, -0.00124244, -0.00236453, -0.000539828, -0.154518, 0.544585, -0.322688
786.25895076899996639, -0.0012456, -0.00237867, -0.000481471, -0.151821, 0.542054, -0.314974
786.29226710199998251, -0.00124744, -0.00238226, -0.000470257, -0.150405, 0.541398, -0.310079
786.32558365900001718, -0.00124624, -0.00239363, -0.000452776, -0.147287, 0.541635, -0.298823
786.3588997690000042, -0.00124489, -0.00239669, -0.000444944, -0.146056, 0.542092, -0.294248
786.39221610200002033, -0.00124645, -0.0024085, -0.00041414, -0.141472, 0.544103, -0.276698
786.42553246900001795, -0.00125302, -0.00243558, -0.00036056, -0.13604, 0.548561, -0.25509
786.45884879699997327, -0.00126017, -0.00246032, -0.000324068, -0.13838, 0.550815, -0.263476
786.49216509699999733, -0.00125902, -0.00246627, -0.000311408, -0.138453, 0.551406, -0.263205
786.52548143100000289, -0.00126021, -0.00247969, -0.000304092, -0.141089, 0.550948, -0.273565
786.55879776899996614, -0.00126271, -0.00249747, -0.000313657, -0.142315, 0.549482, -0.279224
786.59226413099997899, -0.00126006, -0.00248956, -0.000319823, -0.135957, 0.551371, -0.252991
786.62558043599995017, -0.00125666, -0.00248136, -0.000318832, -0.130924, 0.555141, -0.231433
786.65889676400001918, -0.00125371, -0.00246342, -0.00032044, -0.124023, 0.561829, -0.201885
786.6922131310000168, -0.00125409, -0.00247346, -0.00033326, -0.118121, 0.561942, -0.177527
786.72552946400003293, -0.0012542, -0.00248943, -0.000338967, -0.108843, 0.561026, -0.137815
786.75884579700004906, -0.00125391, -0.0025061, -0.000323748, -0.103306, 0.560096, -0.112482
786.79216213100005461, -0.00125157, -0.00251308, -0.000339289, -0.0986274, 0.554939, -0.0934893
786.82547846399995706, -0.00125222, -0.00250616, -0.000363858, -0.098571, 0.552058, -0.0960772
786.85879479699997319, -0.00125402, -0.00251023, -0.000388345, -0.102596, 0.542645, -0.117163
786.89211109699999724, -0.00125655, -0.00250872, -0.000403633, -0.105139, 0.539683, -0.130795
786.9254274310000028, -0.00125673, -0.00249813, -0.000428148, -0.105655, 0.533678, -0.135955
786.95889379699997335, -0.0012572, -0.00249711, -0.000470327, -0.115652, 0.525611, -0.186635
786.9922101309999789, -0.00126103, -0.00250429, -0.000486125, -0.117719, 0.50784, -0.197487
787.02552646399999503, -0.00126628, -0.00249389, -0.000491568, -0.116341, 0.50382, -0.191755
787.05884276400001909, -0.00126731, -0.00247181, -0.000508295, -0.110676, 0.468963, -0.166212
787.09215910199998234, -0.00126732, -0.00247493, -0.000509883, -0.108544, 0.451921, -0.155812
787.12547543499999847, -0.00126874, -0.00246516, -0.000517526, -0.109017, 0.448859, -0.159189
787.15879179700004897, -0.00127092, -0.00246154, -0.000546949, -0.115554, 0.453974, -0.192421
787.19210813100005453, -0.00127283, -0.00245828, -0.000559679, -0.115761, 0.43909, -0.193699
787.22542443500003628, -0.00127363, -0.00244776, -0.000573529, -0.114287, 0.423035, -0.187132
787.2587407969999731, -0.00127766, -0.00245558, -0.000559226, -0.116228, 0.439131, -0.19629
787.29220987799999421, -0.00128348, -0.00246223, -0.000545951, -0.116782, 0.443242, -0.198459
787.32552346399995713, -0.00128423, -0.00244809, -0.00055775, -0.117318, 0.444853, -0.201945
787.35883979699997326, -0.00128543, -0.00243838, -0.000570511, -0.117518, 0.443942, -0.203592
787.39215613099997881, -0.00128803, -0.00243793, -0.000577072, -0.116673, 0.435066, -0.199421
787.42547243100000287, -0.00129145, -0.00244502, -0.000579978, -0.115807, 0.423937, -0.194832
787.458788764000019, -0.00129124, -0.00244689, -0.000589309, -0.114722, 0.416244, -0.189661
787.49210506899999018, -0.00129472, -0.00245152, -0.000571594, -0.116173, 0.42224, -0.19613
787.52542143499999838, -0.00129602, -0.0024529, -0.000580287, -0.115286, 0.418297, -0.192064
787.55873779700004889, -0.00129341, -0.00244945, -0.000630409, -0.111739, 0.40717, -0.176234
787.59205530200006251, -0.00128993, -0.00245851, -0.000664996, -0.110852, 0.399782, -0.172044
787.62537046399995688, -0.00129079, -0.00246456, -0.000658583, -0.111072, 0.39803, -0.172785
787.65883680700005698, -0.00129342, -0.00246622, -0.000623627, -0.113089, 0.399455, -0.181758
787.69215349700004936, -0.00129549, -0.00247802, -0.000602547, -0.115454, 0.397632, -0.192078
787.72546943500003636, -0.00129771, -0.00248273, -0.000596514, -0.116447, 0.396796, -0.196399
787.75878579699997317, -0.00130479, -0.00249952, -0.000556496, -0.116743, 0.394221, -0.198282
787.79210206899995228, -0.00130426, -0.00249832, -0.000534545, -0.116674, 0.393254, -0.198506
787.82541843100000278, -0.00129638, -0.00247105, -0.00051702, -0.117125, 0.392819, -0.201326
787.85873479700001099, -0.0012937, -0.00246485, -0.000511368, -0.116087, 0.393309, -0.197387
787.89205113100001654, -0.00129954, -0.00247787, -0.000514068, -0.113294, 0.397035, -0.186083
787.9253674310000406, -0.00130492, -0.00250081, -0.000525364, -0.111663, 0.401194, -0.179369
787.9586837970000488, -0.00131051, -0.00252789, -0.000496052, -0.107956, 0.408765, -0.167585
787.99215010199998233, -0.00130745, -0.00252746, -0.000486967, -0.106732, 0.410343, -0.164046
788.02546643499999846, -0.00130463, -0.00251715, -0.000475811, -0.109066, 0.404864, -0.172791
788.05878276400005689, -0.00130271, -0.00251676, -0.000448695, -0.110966, 0.400568, -0.181315
788.09209909699995933, -0.00130232, -0.00251666, -0.000435415, -0.109065, 0.403468, -0.176523
788.12541543500003627, -0.00130554, -0.00253726, -0.000430411, -0.10486, 0.41324, -0.164071
788.15873176399998101, -0.00130659, -0.00254283, -0.000424357, -0.103652, 0.41599, -0.161031
788.19204813099997864, -0.00130539, -0.00254036, -0.000410038, -0.105297, 0.412364, -0.167004
788.22536446399999477, -0.00129837, -0.0025203, -0.000432081, -0.105042, 0.410801, -0.164673
788.2586807970000109, -0.00130101, -0.00253832, -0.000410368, -0.103487, 0.415028, -0.161819
788.29199709700003496, -0.00130782, -0.00255715, -0.00037796, -0.104519, 0.415033, -0.166696
788.32531346400003258, -0.00130621, -0.00254909, -0.000374095, -0.103765, 0.414878, -0.164907
788.35877979700001106, -0.00131395, -0.00257703, -0.000356846, -0.103858, 0.417956, -0.165742
788.39209613100001661, -0.00131328, -0.00259368, -0.000348279, -0.103097, 0.420271, -0.163993
788.42541246899997986, -0.00130731, -0.00259658, -0.00037069, -0.100055, 0.424086, -0.154547
788.45872876900000392, -0.00130681, -0.00260131, -0.00037234, -0.0996978, 0.424917, -0.153366
788.49204513100005443, -0.00130466, -0.00260979, -0.000375136, -0.0986072, 0.426929, -0.14985
788.52536146399995687, -0.00130834, -0.00261859, -0.000374247, -0.097804, 0.428258, -0.147302
788.558677796999973, -0.00131267, -0.00262479, -0.000389091, -0.0967941, 0.429277, -0.144199
788.59199409699999705, -0.00131905, -0.00262186, -0.000421153, -0.0962447, 0.428974, -0.142978
788.62531041099998674, -0.00132121, -0.00262293, -0.000432694, -0.0958354, 0.42873, -0.141802
788.65862676899996586, -0.00132109, -0.00261281, -0.000453576, -0.0966126, 0.427862, -0.145174
788.69209312999998929, -0.00132397, -0.00262795, -0.000494752, -0.0972617, 0.427283, -0.148638
788.7254094019999684, -0.00132611, -0.0026186, -0.000500588, -0.0962079, 0.425184, -0.144622
788.75872574000004533, -0.00132653, -0.00262675, -0.000494176, -0.0942991, 0.423303, -0.136661
788.79204209700003503, -0.00132898, -0.00263835, -0.000487841, -0.0924566, 0.421401, -0.128902
788.82535843000005116, -0.00132872, -0.0026279, -0.000492664, -0.093608, 0.42208, -0.13389
788.85867479199998797, -0.00132881, -0.00261336, -0.000498173, -0.0952644, 0.423233, -0.141079
788.89199109699995915, -0.00132977, -0.00260608, -0.000511533, -0.0947381, 0.421795, -0.138724
788.92530743500003609, -0.00133208, -0.00261101, -0.000534922, -0.0937321, 0.421283, -0.134046
788.95862379699997291, -0.00133172, -0.00260427, -0.000552272, -0.0943473, 0.421466, -0.136613
788.99194009699999697, -0.00133314, -0.00260245, -0.00054976, -0.094267, 0.421468, -0.136205
789.02525643499996022, -0.0013307, -0.00258669, -0.000523445, -0.0951219, 0.418547, -0.14061
789.05872279699997307, -0.00132912, -0.00258024, -0.00050108, -0.0976276, 0.414166, -0.152803
789.0920391299999892, -0.00133055, -0.00257441, -0.000489055, -0.0991841, 0.410843, -0.160311
789.12535543000001326, -0.00133405, -0.00258038, -0.000477948, -0.0985771, 0.413013, -0.158079
789.15867179700001088, -0.00133323, -0.00259071, -0.000502497, -0.0953078, 0.42258, -0.142787
789.19198809700003494, -0.00133107, -0.00259398, -0.000540141, -0.0923929, 0.431296, -0.128604
789.22530446400003257, -0.00133006, -0.00258948, -0.000539119, -0.0922665, 0.431348, -0.128212
789.25862076400005662, -0.00132596, -0.00258319, -0.000544316, -0.091996, 0.43157, -0.126871
789.29193709699995907, -0.00132398, -0.00257971, -0.000538619, -0.091629, 0.432941, -0.125636
789.32525340200004393, -0.00132498, -0.00258645, -0.000525174, -0.091149, 0.436682, -0.124398
789.35856979699997282, -0.00132638, -0.00259033, -0.000529215, -0.0900638, 0.442561, -0.119943
789.3920361299999513, -0.00132656, -0.00259186, -0.000531272, -0.08798, 0.453956, -0.111651
789.42535246399995685, -0.00132258, -0.00258406, -0.000520547, -0.0862746, 0.463347, -0.10533
789.4586687680000523, -0.00132552, -0.00259793, -0.000512418, -0.0842386, 0.477336, -0.0979329
789.49198509699999704, -0.00132902, -0.00261252, -0.000494749, -0.0826007, 0.489953, -0.0924661
789.52530146399999467, -0.00133264, -0.00262804, -0.000471717, -0.0801922, 0.508135, -0.0844077
789.55861776799997642, -0.00133439, -0.00262921, -0.00044428, -0.0782697, 0.522258, -0.0782186
789.59193430699997407, -0.001336, -0.00263844, -0.00043623, -0.0762027, 0.536564, -0.0709486
789.62525043000005098, -0.00133684, -0.00264937, -0.000430601, -0.0745522, 0.548434, -0.0653069
789.65856676800001424, -0.00133695, -0.00265404, -0.000424734, -0.0732205, 0.557829, -0.0608586
789.69188310200001979, -0.00133641, -0.00266253, -0.000423347, -0.0707765, 0.57487, -0.0527786
789.72534946400003264, -0.00133764, -0.00267724, -0.000429232, -0.0678737, 0.595181, -0.0434385
789.7586657640000567, -0.0013375, -0.00267978, -0.00044077, -0.0657872, 0.609579, -0.0370557
789.79198210200001995, -0.00133676, -0.00267162, -0.000450329, -0.065881, 0.609205, -0.0377042
789.82529842099995676, -0.00133408, -0.00266633, -0.000467221, -0.0670908, 0.601806, -0.0417074
789.8586147969999729, -0.00133308, -0.00266476, -0.000498404, -0.0671123, 0.603299, -0.0431277
789.89193112999998903, -0.0013356, -0.00268613, -0.000521601, -0.0650347, 0.617497, -0.0390127
789.92524743499996021, -0.00133332, -0.00268174, -0.000531648, -0.0640198, 0.62435, -0.0376454
789.95856376400001864, -0.00133255, -0.00268068, -0.000534751, -0.0636418, 0.626822, -0.0373199
789.99188013499997396, -0.00133456, -0.00267973, -0.00053687, -0.0631082, 0.629747, -0.0367401
790.02519651600005091, -0.00133667, -0.00266843, -0.000550728, -0.063422, 0.629478, -0.0388288
790.05851279700004852, -0.00133771, -0.00265434, -0.000554194, -0.0640089, 0.627763, -0.0403659
790.09197906800000055, -0.00133894, -0.00263367, -0.000558361, -0.0638931, 0.6293, -0.0412797
790.12529546400003255, -0.00133775, -0.00262101, -0.00057039, -0.0632272, 0.631685, -0.041377
790.15861176800001431, -0.00133671, -0.00260324, -0.000590461, -0.062927, 0.632942, -0.042653
790.19192813999995906, -0.00133813, -0.00258758, -0.000600241, -0.0622434, 0.634179, -0.042464
790.22524443500003599, -0.00133811, -0.002573, -0.000615296, -0.0615556, 0.633683, -0.0424277
790.25856079699997281, -0.00134022, -0.00256736, -0.000625992, -0.0621366, 0.633657, -0.0444695
790.29187709699999687, -0.00134089, -0.00257077, -0.000645966, -0.0627525, 0.63349, -0.0468194
790.32519346399999449, -0.00134439, -0.00258548, -0.000667483, -0.0627156, 0.632271, -0.0471256
790.35850976400001855, -0.00134821, -0.00259851, -0.000679326, -0.0628027, 0.631873, -0.0475008
790.39182609700003468, -0.00134886, -0.00260096, -0.000697409, -0.0632348, 0.631859, -0.0491254
790.42529243499996028, -0.00135092, -0.00260861, -0.000706596, -0.0638335, 0.632098, -0.0511854
790.45860874000004515, -0.00135549, -0.00262004, -0.000692479, -0.0645412, 0.632335, -0.053948
790.49192513000002691, -0.00135555, -0.00261558, -0.000682665, -0.0654171, 0.631461, -0.0576802
790.52524143000005097, -0.00135645, -0.00261036, -0.000673286, -0.066328, 0.630106, -0.0617706
790.55855778299996928, -0.00135858, -0.00260622, -0.000664297, -0.0670983, 0.628682, -0.0652986
790.59187409699995897, -0.001363, -0.00260754, -0.000657521, -0.0666623, 0.630134, -0.0637514
790.6251904350000359, -0.00136231, -0.00260272, -0.000676958, -0.065936, 0.631494, -0.0600549
790.6585067920000256, -0.00136013, -0.00260348, -0.000711925, -0.0641447, 0.636501, -0.0512501
790.69182312999998885, -0.00136003, -0.00261138, -0.00073299, -0.0627635, 0.641622, -0.0447301
790.7251394639999944, -0.00135912, -0.0026193, -0.000745547, -0.061293, 0.648279, -0.0382065
790.75845576400001846, -0.00135746, -0.00262705, -0.000747107, -0.0602741, 0.653819, -0.0340824
790.79192234399999961, -0.00135551, -0.00262324, -0.000741875, -0.0601628, 0.655014, -0.0340874
790.82523843000001307, -0.00135582, -0.00262574, -0.000722675, -0.0599193, 0.658583, -0.0342855
790.85855476799997632, -0.00135626, -0.00263196, -0.000705209, -0.0602426, 0.65874, -0.0365547
790.89187110199998187, -0.00135716, -0.00263715, -0.000689989, -0.0609785, 0.65574, -0.0401475
790.925187434999998, -0.00135755, -0.00264778, -0.000673173, -0.0613869, 0.655575, -0.0426845
790.95850376800001413, -0.00135622, -0.00265003, -0.000656374, -0.0610757, 0.659455, -0.0425787
790.99182009699995888, -0.00135678, -0.0026553, -0.000642386, -0.0606147, 0.664359, -0.0418475
791.02513643500003582, -0.00135932, -0.00267032, -0.000618251, -0.0603862, 0.669399, -0.0425082
791.05845279699997263, -0.00136284, -0.00269389, -0.000595621, -0.0594541, 0.679938, -0.0407666
791.09176912999998876, -0.00136391, -0.00270952, -0.00058462, -0.0579689, 0.693314, -0.0369321
791.12523546800002805, -0.00136729, -0.00273556, -0.000565798, -0.0566008, 0.706841, -0.0339233
791.15855177299999923, -0.00136933, -0.00274373, -0.000555142, -0.056092, 0.711946, -0.0330072
791.19186810200005766, -0.00136898, -0.00274761, -0.000555949, -0.0558369, 0.714176, -0.0324424
791.22518443000001298, -0.00136763, -0.00276246, -0.000530345, -0.0557972, 0.715286, -0.0325255
791.25850079700001061, -0.00136707, -0.00276529, -0.000505596, -0.0557536, 0.715814, -0.0324456
791.29181713000002674, -0.00136766, -0.00277174, -0.000483477, -0.0556771, 0.716113, -0.0319983
791.32513343000005079, -0.00136718, -0.00278809, -0.000478386, -0.0551744, 0.719506, -0.0313116
791.35844979700004842, -0.00136378, -0.00278192, -0.00049958, -0.0547269, 0.723499, -0.0320947
791.39176612999995086, -0.00136051, -0.00277265, -0.00051191, -0.0541233, 0.727741, -0.0323193
791.42508246299996699, -0.00136038, -0.00277603, -0.000525339, -0.0539631, 0.729319, -0.0335995
791.45839879699997255, -0.00135739, -0.00278031, -0.000551138, -0.0544507, 0.728328, -0.0373171
791.49186510200001976, -0.00135619, -0.00277179, -0.000572362, -0.0546721, 0.72899, -0.0404675
791.52518140600000152, -0.00135608, -0.0027517, -0.000589127, -0.0546201, 0.731163, -0.0428418
791.55849773500005995, -0.00135275, -0.0027411, -0.000600559, -0.0552338, 0.732104, -0.0450686
791.59181412999998884, -0.00135054, -0.0027352, -0.000611829, -0.0559829, 0.73295, -0.0479746
791.62513043000001289, -0.00134945, -0.00272753, -0.00062027, -0.0567356, 0.735147, -0.0507562
791.65844676300002902, -0.00135098, -0.00271674, -0.000638674, -0.0577183, 0.737462, -0.0556051
791.69176313000002665, -0.00135363, -0.00269894, -0.000658639, -0.0581323, 0.738147, -0.0588486
791.72507943000005071, -0.00134912, -0.00268042, -0.00067974, -0.0584689, 0.738959, -0.0616622
791.75839576299995315, -0.00134681, -0.00267126, -0.000699893, -0.0592419, 0.741399, -0.0658706
791.7917120969999587, -0.00134203, -0.00264388, -0.000737505, -0.059608, 0.739616, -0.0702808
791.82517846300004294, -0.0013437, -0.00263815, -0.000752645, -0.0602288, 0.741071, -0.0735448
791.85849479700004849, -0.00134417, -0.00262689, -0.000763509, -0.0605289, 0.742894, -0.0753954
791.89181110100003025, -0.00134392, -0.00261086, -0.00078037, -0.0606519, 0.743622, -0.0768284
791.92512742999997499, -0.00134662, -0.00260594, -0.000793179, -0.0605462, 0.742112, -0.0770592
791.958443801000044, -0.00134888, -0.00260449, -0.000796487, -0.0601842, 0.740676, -0.0759426
791.99176010099995437, -0.00134895, -0.00260534, -0.000797133, -0.0598399, 0.739582, -0.0747678
792.02507368900000984, -0.00134877, -0.00261039, -0.000800252, -0.059387, 0.738164, -0.0731232
792.0583855869999752, -0.00135027, -0.00261978, -0.000807515, -0.0587488, 0.737058, -0.0707641
792.09169770100004371, -0.00135227, -0.00263727, -0.000812801, -0.0589835, 0.736544, -0.0717679
792.12500982200003818, -0.00135347, -0.00265394, -0.000812789, -0.0586583, 0.736938, -0.0705881
792.15847212400001354, -0.00135643, -0.00266049, -0.000809462, -0.0591956, 0.736211, -0.0729629
792.1917841550000503, -0.00136111, -0.00266853, -0.000794583, -0.059618, 0.736044, -0.0753755
792.22509635699998398, -0.00136039, -0.00268008, -0.000775472, -0.0594154, 0.738115, -0.0755182
792.2584084930000472, -0.00135934, -0.00268543, -0.000755573, -0.0594461, 0.739355, -0.0769328
792.29172066600006019, -0.00136034, -0.00269183, -0.000736944, -0.0595431, 0.740569, -0.0786363
792.32503286400003617, -0.00135992, -0.00269632, -0.000735223, -0.0591518, 0.742786, -0.0772531
792.35834500400005709, -0.00136441, -0.00270012, -0.000728096, -0.0590739, 0.744205, -0.0776785
792.39165717299999869, -0.00136699, -0.00270124, -0.000708785, -0.0595565, 0.743928, -0.0813318
792.42496933699999317, -0.0013681, -0.00270765, -0.00067587, -0.0603358, 0.743637, -0.087055
792.45828153900004054, -0.00137046, -0.00271842, -0.000652457, -0.0612804, 0.742513, -0.0928851
792.49159367400000065, -0.00137347, -0.00272656, -0.000632772, -0.0618614, 0.742363, -0.0969888
792.52505585799997334, -0.00137696, -0.00273524, -0.00060779, -0.0631973, 0.739288, -0.104615
792.55836799799999426, -0.00137383, -0.00273035, -0.000596349, -0.0643289, 0.73509, -0.110391
792.59168019499998081, -0.00137165, -0.00273186, -0.000588539, -0.0640002, 0.736192, -0.109535
792.62499233100004403, -0.00136926, -0.00272408, -0.000603376, -0.063961, 0.734379, -0.108271
792.65830453299997771, -0.00136813, -0.00272092, -0.000605374, -0.064638, 0.732317, -0.1109
792.69161667299999863, -0.00136829, -0.00272288, -0.000605995, -0.065231, 0.731546, -0.113173
792.72492883699999311, -0.00136889, -0.00271736, -0.000608167, -0.0656055, 0.730048, -0.11433
792.75824103900004047, -0.00136655, -0.0027119, -0.000613126, -0.0662274, 0.728295, -0.11613
792.79155320799998208, -0.00136505, -0.0027099, -0.00062157, -0.066482, 0.727721, -0.116499
792.82486534300005587, -0.00136358, -0.00270596, -0.00063135, -0.0667182, 0.727007, -0.116765
792.85832752700002857, -0.00136331, -0.00270612, -0.000640937, -0.0664712, 0.727434, -0.116069
792.89163969499998075, -0.00136445, -0.00270488, -0.000652989, -0.0660173, 0.728212, -0.115527
792.92495186400003604, -0.00136274, -0.00269814, -0.000669562, -0.0657094, 0.728629, -0.115802
792.95826400400005696, -0.00136171, -0.00269027, -0.000679338, -0.0657556, 0.728014, -0.116108
792.99157620200003294, -0.00135989, -0.00268522, -0.000694443, -0.0657966, 0.72789, -0.116859
793.0248905470000409, -0.00135868, -0.00268502, -0.000719923, -0.0659245, 0.727849, -0.118074
793.05820704300003854, -0.00134804, -0.00268298, -0.000773516, -0.0659319, 0.729246, -0.122408
793.09152337499995156, -0.00134782, -0.00268936, -0.000795302, -0.0659403, 0.730139, -0.124719
793.1248397130000285, -0.00134769, -0.00269169, -0.000799641, -0.0659081, 0.730838, -0.1267
793.15815657500002089, -0.0013492, -0.00269214, -0.000777798, -0.0658705, 0.730473, -0.124246
793.19147238000005018, -0.0013507, -0.00269748, -0.000782521, -0.0659004, 0.730944, -0.127215
793.22493871300002866, -0.00135229, -0.00271189, -0.000770728, -0.0659932, 0.731594, -0.13238
793.25825504600004479, -0.00135504, -0.0027102, -0.00076122, -0.0661121, 0.731217, -0.135483
793.29157135100001597, -0.0013603, -0.00271523, -0.00075795, -0.0660449, 0.73158, -0.13467
793.32488767999996071, -0.00136064, -0.00272068, -0.000751494, -0.0661281, 0.731291, -0.136005
793.35820404599996891, -0.00136403, -0.0027294, -0.000748594, -0.0661539, 0.731309, -0.13667
793.39152037999997447, -0.00136116, -0.00274261, -0.000723761, -0.0664027, 0.732107, -0.139141
793.42483668500005933, -0.00135596, -0.0027471, -0.000701066, -0.0668412, 0.731011, -0.143628
793.45815304600000673, -0.00135436, -0.00274557, -0.000690861, -0.0668746, 0.732174, -0.142376
793.49146938000001228, -0.00135042, -0.00273767, -0.000681209, -0.067019, 0.732824, -0.141809
793.52478571300002841, -0.00134748, -0.00273023, -0.000680367, -0.0669693, 0.734353, -0.139359
793.55825201799996194, -0.00134757, -0.00272038, -0.000699481, -0.0667107, 0.732809, -0.136973
793.59156834600003094, -0.00134762, -0.00270239, -0.000729329, -0.0663625, 0.728589, -0.134323
793.62488471300002857, -0.001343, -0.0026937, -0.000737677, -0.0661904, 0.729493, -0.130912
793.6582010460000447, -0.00133924, -0.00269382, -0.000730833, -0.0662115, 0.73223, -0.129213
793.69151735100001588, -0.00133725, -0.00268936, -0.000744786, -0.0657659, 0.738631, -0.121537
793.72483368500002143, -0.0013338, -0.00268684, -0.000748075, -0.0656119, 0.741026, -0.118776
793.75815001800003756, -0.00133463, -0.00268971, -0.000739118, -0.065662, 0.744848, -0.117095
793.79146634599999288, -0.00133247, -0.00268819, -0.000754276, -0.0654461, 0.743006, -0.116315
793.82478268399995613, -0.00133186, -0.00268538, -0.000762339, -0.065391, 0.74078, -0.116432
793.85809901300001457, -0.00133667, -0.00268332, -0.000785174, -0.0650106, 0.742813, -0.111798
793.89141531799998575, -0.00133923, -0.00268452, -0.000794973, -0.0647472, 0.746221, -0.108084
793.92488171299999067, -0.00133832, -0.00268017, -0.000793997, -0.064625, 0.749045, -0.105147
793.9581980460000068, -0.00133749, -0.00267543, -0.000799114, -0.0643824, 0.752968, -0.10039
793.99151434600003086, -0.00133973, -0.00266639, -0.000818525, -0.0640085, 0.756253, -0.0942746
794.02483071300002848, -0.0013475, -0.00265612, -0.000862872, -0.063561, 0.754763, -0.090283
794.05814710300001025, -0.00135406, -0.00265501, -0.000887744, -0.0634808, 0.750114, -0.0923337
794.09146338000005017, -0.0013593, -0.00265152, -0.000897921, -0.0633673, 0.749981, -0.0907471
794.12477971299995261, -0.00136032, -0.00264327, -0.000894427, -0.063252, 0.752985, -0.0863355
794.15809601800003747, -0.00135909, -0.00263147, -0.000889293, -0.0631085, 0.756831, -0.0810435
794.19141232300000866, -0.00135326, -0.00262515, -0.000874417, -0.0631655, 0.758647, -0.0791845
794.22472867999999835, -0.00134099, -0.00260444, -0.000862715, -0.0632537, 0.759185, -0.0770945
794.25819501800003763, -0.00133663, -0.00258938, -0.000865218, -0.0631285, 0.760773, -0.0737438
794.29151131800006169, -0.00133125, -0.00258325, -0.000867916, -0.0631016, 0.760869, -0.0729794
794.32482768399995621, -0.00132539, -0.00258033, -0.000874018, -0.0631357, 0.759876, -0.0736583
794.35814398900004107, -0.00131972, -0.00257393, -0.000880339, -0.0630825, 0.759961, -0.072625
794.39146034600003077, -0.00131455, -0.00256655, -0.000888282, -0.0630081, 0.76018, -0.0712708
794.42477665100000195, -0.0013096, -0.00255978, -0.000894061, -0.0629538, 0.760378, -0.0702271
794.45809301300005245, -0.00130407, -0.00255411, -0.000897625, -0.0629162, 0.760622, -0.0693702
794.4914093510000157, -0.00130118, -0.00254922, -0.000900441, -0.0629055, 0.76048, -0.0689623
794.52472571299995252, -0.00130049, -0.0025443, -0.000905493, -0.0628492, 0.76066, -0.0680061
794.55804201299997658, -0.00130178, -0.00254006, -0.000909639, -0.062803, 0.760806, -0.0672629
794.5913583799999742, -0.00130354, -0.00253561, -0.00091214, -0.0627763, 0.760798, -0.0667211
794.62482471299995268, -0.00130444, -0.0025322, -0.000913888, -0.0627717, 0.760675, -0.0664601
794.65814098400005605, -0.00130705, -0.00253049, -0.000914987, -0.0627735, 0.760546, -0.066273
794.69145737999997436, -0.00131005, -0.00253071, -0.000916204, -0.0627805, 0.760401, -0.0662437
794.72477368399995612, -0.00131374, -0.00253041, -0.000915759, -0.0627578, 0.760581, -0.0657371
794.75809001799996167, -0.00131719, -0.00253078, -0.000916025, -0.0627283, 0.760813, -0.0651466
794.79140634600003068, -0.00132574, -0.00252975, -0.000917412, -0.0626663, 0.761244, -0.0641612
794.82472271300002831, -0.00134358, -0.00252676, -0.000922534, -0.0626077, 0.761429, -0.063275
794.85803901300005236, -0.0013599, -0.00252597, -0.000924982, -0.0625865, 0.761382, -0.0628319
794.89135538000004999, -0.00137465, -0.0025247, -0.000924973, -0.0625577, 0.761563, -0.0621432
794.92467167999996036, -0.00139111, -0.00252452, -0.000925966, -0.0625449, 0.761598, -0.0617232
794.95813801799999965, -0.00140845, -0.00252479, -0.000925613, -0.0625136, 0.761875, -0.0610825
794.99145438000005015, -0.00142592, -0.00252453, -0.000926663, -0.0624833, 0.762074, -0.0604715
795.02477068400003191, -0.00144663, -0.00252318, -0.00092792, -0.0624482, 0.762246, -0.0598189
795.05808704599996872, -0.00146328, -0.00252203, -0.000926971, -0.0624176, 0.762509, -0.0591536
795.09140337999997428, -0.00148155, -0.00252209, -0.000926374, -0.0624046, 0.762614, -0.0588076
795.12471971299999041, -0.00150248, -0.00252112, -0.000926185, -0.062385, 0.762727, -0.0583771
795.15803604600000654, -0.00151623, -0.00252056, -0.000924311, -0.0623763, 0.762895, -0.0579586
795.19135234600003059, -0.00153256, -0.00252078, -0.000923694, -0.0623478, 0.763157, -0.0573906
795.22466868399999385, -0.00154665, -0.00252074, -0.000925362, -0.0623245, 0.763255, -0.0569276
795.25798904600003425, -0.00155949, -0.00252171, -0.000926951, -0.0623062, 0.763304, -0.0565943
795.29130134599995472, -0.00157569, -0.00252356, -0.000930319, -0.0622883, 0.763293, -0.0562854
795.32476768000003631, -0.0015937, -0.00252267, -0.000933885, -0.0622476, 0.763442, -0.0556515
795.3580846790000578, -0.00161095, -0.00252655, -0.000936471, -0.0622399, 0.763379, -0.0555567
795.39140035100001569, -0.00162981, -0.00251913, -0.000935588, -0.0622543, 0.763146, -0.0556926
795.42471668400003182, -0.00164492, -0.00252274, -0.000937245, -0.0622245, 0.763243, -0.0552743
795.45803304599996864, -0.00165273, -0.00253515, -0.000938303, -0.0623486, 0.76227, -0.0570465
795.49134932200001913, -0.0016588, -0.0025494, -0.000936773, -0.0624356, 0.761504, -0.058356
795.52466565099996387, -0.00167525, -0.00254145, -0.000944102, -0.0622441, 0.762798, -0.0557148
795.55798204600000645, -0.00168173, -0.00254968, -0.000939153, -0.062307, 0.762404, -0.0566883
795.59129837900002258, -0.00168635, -0.00254125, -0.000935386, -0.062682, 0.75901, -0.0621626
795.62461471300002813, -0.00166781, -0.00251, -0.000935861, -0.0629367, 0.755916, -0.0658346
795.65808101300001454, -0.00166625, -0.00250401, -0.000941117, -0.0628247, 0.756529, -0.0642275
795.69139737900002274, -0.00166561, -0.00249806, -0.000941807, -0.0626066, 0.758599, -0.0606205
795.72471371300002829, -0.0016636, -0.00249294, -0.000934726, -0.0625376, 0.759831, -0.058793
795.75803004600004442, -0.00166039, -0.00249749, -0.000914241, -0.0627429, 0.75952, -0.0609111
795.7913463510000156, -0.00166042, -0.00249745, -0.000904767, -0.0628346, 0.759435, -0.0615896
795.82466268400003173, -0.00166062, -0.00250143, -0.000890508, -0.0629507, 0.759688, -0.0625602
795.85797899399995003, -0.0016591, -0.00250363, -0.00087339, -0.0631625, 0.758982, -0.064875
795.89129534599999261, -0.00165871, -0.0025003, -0.000877867, -0.0630892, 0.759756, -0.0633023
795.92461167900000873, -0.00165705, -0.00250615, -0.000862811, -0.0631822, 0.76059, -0.0639104
795.95792801300001429, -0.00165769, -0.00251031, -0.000868983, -0.0631134, 0.761766, -0.0626018
795.99124435099997754, -0.00165771, -0.00250268, -0.000877533, -0.0631734, 0.762824, -0.0599354
796.02471071299999039, -0.00165757, -0.00250457, -0.000866163, -0.0631745, 0.762682, -0.060623
796.05802701699997215, -0.00165831, -0.00250551, -0.000872894, -0.0633519, 0.763575, -0.0592268
796.0913433509999777, -0.00165836, -0.0025152, -0.000857606, -0.0634233, 0.764622, -0.0578367
796.1246597130000282, -0.00165913, -0.00252329, -0.000849189, -0.06329, 0.765006, -0.0573604
796.15797601300005226, -0.00165968, -0.00252425, -0.000854946, -0.0633865, 0.764985, -0.0576912
796.19129235100001551, -0.00165784, -0.00252447, -0.00084801, -0.0630321, 0.765331, -0.0570753
796.22460867899997083, -0.0016579, -0.00252635, -0.000846602, -0.0629303, 0.765437, -0.0569376
796.25792505100002927, -0.00165858, -0.00252201, -0.000850438, -0.0632257, 0.765169, -0.0576211
796.29124137899998459, -0.00165891, -0.00252997, -0.000832389, -0.0626629, 0.765152, -0.0546452
796.32455771299999014, -0.00165926, -0.00253224, -0.000826024, -0.0625658, 0.764954, -0.0535728
796.35802401700004793, -0.00165875, -0.00253531, -0.000826191, -0.0628596, 0.764191, -0.0538158
796.39134037899998475, -0.00165744, -0.00253822, -0.000819934, -0.0626197, 0.764025, -0.052483
796.42465674599998238, -0.00166004, -0.00254577, -0.000827014, -0.0634332, 0.762375, -0.0550327
796.45797299800005931, -0.00166052, -0.00255333, -0.000813655, -0.063173, 0.761148, -0.0520417
796.49128937900002256, -0.00165869, -0.00255378, -0.000790824, -0.0621475, 0.761311, -0.0455024
796.52460566000002018, -0.00165972, -0.00255779, -0.000788763, -0.0622177, 0.760287, -0.0449542
796.55792201300005217, -0.0016583, -0.00256304, -0.000776256, -0.0616302, 0.759111, -0.0410928
796.59123835100001543, -0.00165837, -0.00256616, -0.000773898, -0.0615414, 0.758278, -0.0403358
796.62455467899997075, -0.00165712, -0.00256399, -0.000773773, -0.0617966, 0.759202, -0.0406082
796.65787104599996837, -0.00165678, -0.00256596, -0.000768557, -0.0616317, 0.758767, -0.0390123
796.69133735100001559, -0.00165532, -0.00256592, -0.000766816, -0.0617274, 0.759743, -0.0385093
796.72465370300005816, -0.00165276, -0.00256116, -0.000754941, -0.0610157, 0.762414, -0.0333718
796.75797004599996853, -0.00165135, -0.00255488, -0.000731211, -0.0592863, 0.765166, -0.0222522
796.79128637899998466, -0.00165001, -0.00255161, -0.000730732, -0.0592049, 0.768219, -0.0213733
796.82460268399995584, -0.00165021, -0.00255371, -0.000731447, -0.0594781, 0.768763, -0.0219709
796.85791901300001427, -0.00165175, -0.00255684, -0.000734284, -0.0598277, 0.767177, -0.0237496
796.89123537900002248, -0.00165263, -0.00255941, -0.000728516, -0.0594394, 0.765454, -0.0205879
796.92455171300002803, -0.00166633, -0.00259456, -0.000745043, -0.0630149, 0.733405, -0.0415037
796.95786804600004416, -0.00166709, -0.00259674, -0.000748678, -0.0634887, 0.732445, -0.0443175
796.99118437900006029, -0.00166759, -0.0025964, -0.0007543, -0.0640965, 0.73443, -0.0484716
797.02450068400003147, -0.00166904, -0.00260047, -0.000756582, -0.064656, 0.730079, -0.0518116
797.05796702700001788, -0.00167188, -0.0026092, -0.000765587, -0.0662788, 0.7212, -0.0615133
797.09128337900006045, -0.00167255, -0.00260912, -0.000773395, -0.0672869, 0.719568, -0.0688212
797.12459968400003163, -0.00167349, -0.00260953, -0.000784613, -0.0686674, 0.718105, -0.0784269
797.15791604599996845, -0.00167416, -0.00261123, -0.000788125, -0.0692152, 0.715782, -0.0818633
797.19123231699995813, -0.00167416, -0.00261097, -0.000792737, -0.0696233, 0.717257, -0.0846953
797.22454867900000863, -0.00167434, -0.00261076, -0.000796871, -0.0701041, 0.717644, -0.0881937
797.25786504600000626, -0.00167436, -0.00260876, -0.000801476, -0.0710025, 0.71287, -0.0952768
797.29118137900002239, -0.00167366, -0.00260441, -0.000802095, -0.0714452, 0.708335, -0.0996976
797.32449767900004645, -0.00167413, -0.0026058, -0.00079868, -0.0713295, 0.705656, -0.098675
797.35781404600004407, -0.00167519, -0.00261008, -0.000803856, -0.0723082, 0.699173, -0.104821
797.39128038399996967, -0.00167609, -0.00261272, -0.000804433, -0.0728399, 0.69427, -0.108133
797.42459667900004661, -0.00167682, -0.00261546, -0.000796785, -0.0727589, 0.689618, -0.107324
797.45791304600004423, -0.00167814, -0.00261991, -0.000790225, -0.0727848, 0.684764, -0.106975
797.4912293459999546, -0.00167965, -0.00262452, -0.000791539, -0.0727806, 0.684435, -0.105901
797.52454568400003154, -0.00167954, -0.00261731, -0.00079855, -0.0727086, 0.688411, -0.106333
797.55786198900000272, -0.00168124, -0.00262275, -0.000782319, -0.0727264, 0.683935, -0.106208
797.59117837899998449, -0.00168237, -0.00262272, -0.000776395, -0.0725622, 0.684303, -0.105084
797.62449467900000855, -0.00168262, -0.00262129, -0.000771385, -0.0725697, 0.683868, -0.105497
797.65781105500002468, -0.00168411, -0.00262945, -0.000762122, -0.0731306, 0.678375, -0.109656
797.6911273790000223, -0.00168264, -0.00262812, -0.000758439, -0.0735619, 0.674831, -0.113775
797.72444371200003843, -0.00168291, -0.00262853, -0.000762537, -0.0732664, 0.676388, -0.110877
797.75791004600000633, -0.00168203, -0.0026236, -0.000766391, -0.072901, 0.677876, -0.107979
797.79122635099997751, -0.00168198, -0.00262091, -0.000771466, -0.0726099, 0.678475, -0.105645
797.82454268399999364, -0.00168162, -0.00261342, -0.00077883, -0.0719444, 0.680642, -0.0997041
797.85785904600004415, -0.00168038, -0.00260627, -0.000784898, -0.0713817, 0.682123, -0.0941333
797.89117537900006027, -0.00168016, -0.00260184, -0.000786893, -0.0712819, 0.682339, -0.0926219
797.92449167899997065, -0.00168102, -0.00261963, -0.000773438, -0.0723575, 0.686285, -0.10127
797.95780804599996827, -0.00168127, -0.00262111, -0.000756328, -0.0733119, 0.687803, -0.107427
797.99112434599999233, -0.00168124, -0.00261837, -0.000760334, -0.0730474, 0.686724, -0.104055
798.02444071200000053, -0.00168101, -0.00261673, -0.000752754, -0.0734589, 0.687428, -0.104636
798.05775701699997171, -0.00168177, -0.00260956, -0.000753729, -0.0731508, 0.684053, -0.0994558
798.09122337899998456, -0.00168235, -0.00260821, -0.000765632, -0.0720491, 0.682151, -0.0895223
798.12453968399995574, -0.001683, -0.00261041, -0.000770871, -0.0715707, 0.682476, -0.0851657
798.15785604600000624, -0.0016839, -0.00261881, -0.000781412, -0.0708489, 0.686265, -0.0821189
798.19117235099997743, -0.0016844, -0.00262959, -0.000779225, -0.0711996, 0.693652, -0.0901909
798.22448868399999355, -0.00168496, -0.0026358, -0.000768438, -0.0723013, 0.698964, -0.102185
798.25780506000000969, -0.0016851, -0.00263775, -0.000760462, -0.0728914, 0.700213, -0.106514
798.29112134599995443, -0.00168334, -0.00263485, -0.000755385, -0.0732397, 0.697986, -0.107234
798.32443768400003137, -0.00168149, -0.00263157, -0.000756613, -0.0732099, 0.695437, -0.105478
798.35775404599996818, -0.00167894, -0.00262521, -0.000756497, -0.0733099, 0.69062, -0.103611
798.39107037899998431, -0.00167751, -0.00262158, -0.000754783, -0.0734952, 0.688272, -0.103874
798.42438671200000044, -0.00167941, -0.00263036, -0.000751515, -0.0735094, 0.6934, -0.105325
798.45785301199998685, -0.00168054, -0.00263741, -0.0007502, -0.0734567, 0.697622, -0.10637
798.49116937899998447, -0.00168136, -0.00264166, -0.000750287, -0.073359, 0.700698, -0.107047
798.5244857120000006, -0.00168152, -0.00264275, -0.000747674, -0.0733984, 0.701302, -0.107246
798.55780204600000616, -0.00168169, -0.00264499, -0.000751817, -0.0730139, 0.701545, -0.10388
798.59111837900002229, -0.00168065, -0.00264339, -0.000754598, -0.0729457, 0.70035, -0.103175
798.62443471200003842, -0.00168055, -0.00264458, -0.000757235, -0.0727886, 0.701123, -0.102515
798.65775101200006247, -0.00168134, -0.00265033, -0.000765712, -0.0722073, 0.704084, -0.0993487
798.6910673790000601, -0.00168282, -0.00265563, -0.000775982, -0.0716491, 0.70674, -0.0968621
798.72438371199996254, -0.00168424, -0.00265969, -0.000779249, -0.0713985, 0.708612, -0.0952246
798.75770073600006072, -0.00168578, -0.00266563, -0.000785315, -0.0710028, 0.710894, -0.0917789
798.79116635000002589, -0.00168291, -0.00265687, -0.000793528, -0.0709817, 0.706868, -0.0900751
798.82448267899997063, -0.00168203, -0.00265639, -0.0008003, -0.0708107, 0.706792, -0.0863567
798.85779902199999469, -0.00168374, -0.0026646, -0.000800912, -0.0706223, 0.710767, -0.0839249
798.8911153500000637, -0.00168226, -0.00266005, -0.000807246, -0.0706534, 0.709775, -0.082531
798.92443171200000052, -0.00168245, -0.00266069, -0.00081895, -0.0706208, 0.710439, -0.0808915
798.95774804600000607, -0.00168283, -0.0026623, -0.000828815, -0.0706159, 0.710796, -0.0803095
798.99106434600003013, -0.00168343, -0.00266519, -0.000847848, -0.070669, 0.711853, -0.0791296
799.02438071200003833, -0.00168259, -0.00266243, -0.000873646, -0.0708972, 0.711889, -0.0778139
799.05769701700000951, -0.00168275, -0.00266249, -0.000885991, -0.0710063, 0.711816, -0.0776661
799.09101334599995425, -0.00168347, -0.00266534, -0.000894213, -0.0710656, 0.711841, -0.0779742
799.12432968400003119, -0.00168475, -0.00266947, -0.00091259, -0.0712386, 0.711348, -0.0788171
799.15779601700000967, -0.00168559, -0.00267189, -0.000925188, -0.0713727, 0.712026, -0.0783015
799.19111237900006017, -0.0016863, -0.00267158, -0.000938149, -0.0715322, 0.712504, -0.0773044
799.22442867899997054, -0.00168656, -0.00267212, -0.000941921, -0.0715747, 0.712345, -0.0774334
799.25774504599996817, -0.00168839, -0.00267867, -0.000946549, -0.0715918, 0.712796, -0.0780269
799.29106135000006361, -0.00168836, -0.00267589, -0.000955176, -0.0717158, 0.711506, -0.0788427
799.32437768399995548, -0.00168403, -0.00264558, -0.000989795, -0.0723183, 0.703436, -0.0821564
799.35769401200002449, -0.00168188, -0.00262821, -0.00102414, -0.0727661, 0.697585, -0.0848908
799.39101037900002211, -0.00167842, -0.00260349, -0.0010365, -0.0730451, 0.692132, -0.0846119
799.42432671200003824, -0.0016755, -0.00258423, -0.00105241, -0.0732641, 0.687242, -0.0846201
799.45764336900003855, -0.00167428, -0.00257951, -0.0010554, -0.0733461, 0.686269, -0.0861061
799.4911093460000302, -0.00167153, -0.00256422, -0.00106988, -0.0734904, 0.682339, -0.0877249
799.5244257120000384, -0.00166963, -0.00255032, -0.0010805, -0.0735395, 0.678127, -0.087118
799.55774204600004396, -0.00166927, -0.00254649, -0.00108295, -0.0735208, 0.676247, -0.0854177
799.59105837900006009, -0.00166454, -0.00250089, -0.00110338, -0.0735917, 0.658859, -0.0783215
799.62437468400003127, -0.00166307, -0.00248153, -0.00111095, -0.0736008, 0.651868, -0.0769695
799.65769104599996808, -0.00166264, -0.0024775, -0.00111313, -0.0735742, 0.65084, -0.0775123
799.6910086789999923, -0.0016622, -0.00247031, -0.00111488, -0.0735734, 0.648829, -0.0787431
799.72432371200000034, -0.00166201, -0.00247077, -0.00111481, -0.0735813, 0.648941, -0.0789224
799.7576400460000059, -0.00166274, -0.00247313, -0.00111299, -0.0735943, 0.65056, -0.0799476
799.79095637900002203, -0.00166333, -0.00246661, -0.001117, -0.0732632, 0.647803, -0.0778017
799.82442268399995555, -0.00166317, -0.00246131, -0.00111569, -0.0733343, 0.644651, -0.0780499
799.85773904500001663, -0.00166314, -0.00246116, -0.00111536, -0.0733646, 0.644526, -0.0781295
799.89105537900002219, -0.0016637, -0.00245743, -0.00111733, -0.0732627, 0.64157, -0.0753286
799.92437171200003831, -0.00166389, -0.00245152, -0.00112073, -0.0729347, 0.636798, -0.0711722
799.95768804500005444, -0.0016645, -0.00243958, -0.00112064, -0.0729509, 0.626395, -0.0677632
799.99100434499996481, -0.00166538, -0.00243513, -0.00112453, -0.0724829, 0.622859, -0.0634876
800.02432068400003118, -0.00166551, -0.00243086, -0.00112239, -0.0728776, 0.618362, -0.0635366
800.05763704499997857, -0.00166565, -0.00242086, -0.00111917, -0.0734062, 0.607484, -0.0624495
800.09095334500000263, -0.00166594, -0.00240997, -0.00111481, -0.0741888, 0.594001, -0.061858
800.12426971200000025, -0.0016656, -0.00240328, -0.00111143, -0.0746374, 0.583678, -0.0615252
800.15758604500001638, -0.00166514, -0.00239289, -0.00110989, -0.0744666, 0.569012, -0.0568053
800.1910523500000636, -0.00166503, -0.00239538, -0.00111063, -0.0745862, 0.574664, -0.0577826
800.22436868399995546, -0.00166582, -0.00239145, -0.00111109, -0.074713, 0.568686, -0.0556051
800.25768498800005091, -0.00166577, -0.00238944, -0.00110982, -0.0748946, 0.563604, -0.0544784
800.29100134999998772, -0.00166651, -0.00238512, -0.00111209, -0.0744708, 0.55494, -0.0491864
800.32431767900004616, -0.00166773, -0.00238151, -0.00111575, -0.0735463, 0.547533, -0.0416645
800.35763404500005436, -0.00166848, -0.00237685, -0.00111887, -0.0727059, 0.535852, -0.0336136
800.39095037900005991, -0.00166965, -0.00237444, -0.00112476, -0.071238, 0.530616, -0.0237814
800.42426667899997028, -0.00166756, -0.00237212, -0.00113202, -0.0693792, 0.531594, -0.013471
800.45758301700004722, -0.0016676, -0.00237174, -0.00113612, -0.0675163, 0.538561, -0.00643392
800.49089937899998404, -0.00166797, -0.00237112, -0.00113875, -0.0666184, 0.537737, -0.00173902
800.52436571700002332, -0.00166869, -0.00237213, -0.00113967, -0.0661533, 0.541235, -3.85471e-05
800.55768201199998657, -0.00166832, -0.00237162, -0.00114199, -0.0655168, 0.542879, 0.0028799
800.5909983450000027, -0.00166891, -0.00237062, -0.0011443, -0.064666, 0.538025, 0.00824065
800.62431467900000825, -0.00166926, -0.00236962, -0.00114692, -0.0638161, 0.536881, 0.0123629
800.65763101200002438, -0.00166971, -0.00236881, -0.00115016, -0.062937, 0.535905, 0.0171849
800.69094737900002201, -0.00167027, -0.00236772, -0.00115391, -0.0618747, 0.531474, 0.0235496
800.72426371200003814, -0.00167087, -0.00236639, -0.00115916, -0.0603067, 0.52976, 0.0321793
800.7575800120000622, -0.00167038, -0.00236587, -0.00116135, -0.0597524, 0.528562, 0.0361514
800.79089639300002545, -0.0016705, -0.00236566, -0.00116366, -0.0591894, 0.526996, 0.0400965
800.82421271199996227, -0.001671, -0.00236621, -0.00116684, -0.0586995, 0.524914, 0.0451019
800.85752898800001276, -0.00167158, -0.00236582, -0.00117072, -0.0578791, 0.525259, 0.0496199
800.89099535000002561, -0.00167189, -0.00236695, -0.00117294, -0.0572767, 0.529521, 0.0542923
800.92431167899997035, -0.00167223, -0.00236815, -0.00117758, -0.0562616, 0.530988, 0.0618329
800.95762805000003937, -0.00167207, -0.00236928, -0.00117982, -0.056008, 0.529548, 0.065165
800.99094439300006343, -0.00167153, -0.00236972, -0.00117986, -0.0563504, 0.526001, 0.0648149
801.02426064999997379, -0.00167118, -0.00237052, -0.00118091, -0.056301, 0.524782, 0.0664467
801.05757698800005073, -0.00167053, -0.00237218, -0.00118232, -0.0562419, 0.522815, 0.0691443
801.09089337900002192, -0.00167025, -0.00237245, -0.00118348, -0.0562911, 0.520938, 0.0699337
801.12420968300000368, -0.00167067, -0.00237235, -0.00118475, -0.0559435, 0.522243, 0.0717896
801.15752601200006211, -0.00167198, -0.00237244, -0.00118205, -0.055906, 0.525974, 0.0716109
801.19084234499996455, -0.00167259, -0.00237207, -0.00118287, -0.0559075, 0.524929, 0.0723617
801.22430871200003821, -0.00167316, -0.0023716, -0.0011825, -0.0558073, 0.526075, 0.0725013
801.25762498799997502, -0.00167598, -0.00237203, -0.00118823, -0.0546646, 0.529412, 0.0787119
801.29094135000002552, -0.00167579, -0.0023709, -0.00119083, -0.0546288, 0.52733, 0.0788293
801.32425771199996234, -0.00167637, -0.00236994, -0.0011921, -0.0545949, 0.526278, 0.0784899
801.35757401700004721, -0.00167634, -0.00236766, -0.00119995, -0.0540761, 0.523833, 0.0794468
801.39089037899998402, -0.00167836, -0.00237562, -0.00121191, -0.0515496, 0.533799, 0.0952801
801.42420667900000808, -0.00167921, -0.00238322, -0.00121696, -0.0506385, 0.53774, 0.103414
801.45752301200002421, -0.00167612, -0.00237903, -0.00123112, -0.0496864, 0.535567, 0.10669
801.49083934500004034, -0.00167743, -0.00237781, -0.00123585, -0.0489336, 0.537017, 0.108581
801.52415571200003797, -0.00167858, -0.00237452, -0.0012524, -0.0471599, 0.538787, 0.114183
801.55747201200006202, -0.00168012, -0.00237276, -0.00126285, -0.0465725, 0.537648, 0.117232
801.590938379000022, -0.0016817, -0.00237077, -0.00127218, -0.0461495, 0.536115, 0.119558
801.62425471200003813, -0.00168309, -0.00237075, -0.00127808, -0.0455296, 0.537231, 0.122673
801.65757101200006218, -0.00168635, -0.00236502, -0.00130434, -0.0446441, 0.532952, 0.12812
801.69088734499996463, -0.00168761, -0.00236301, -0.00131721, -0.0440497, 0.53166, 0.131064
801.72420368300004156, -0.00168934, -0.00236189, -0.00133237, -0.0431049, 0.531535, 0.135603
801.75752004499997838, -0.00169189, -0.0023618, -0.00134792, -0.04196, 0.532368, 0.141279
801.79083635000006325, -0.00169308, -0.00236038, -0.00135534, -0.0416996, 0.531328, 0.142852
801.82415271200000007, -0.00169406, -0.00235918, -0.00136286, -0.0414292, 0.53035, 0.144183
801.85746901200002412, -0.00169627, -0.0023585, -0.00137471, -0.040794, 0.529995, 0.147953
801.89078534500004025, -0.00169924, -0.00235936, -0.00138801, -0.0398199, 0.530932, 0.153097
801.92425167900000815, -0.00170114, -0.00235934, -0.00139889, -0.0391739, 0.530879, 0.156248
801.95756804500001635, -0.00170212, -0.00235865, -0.00140585, -0.0389065, 0.530116, 0.157487
801.99088431699999546, -0.00170579, -0.00235546, -0.00143213, -0.037985, 0.527072, 0.162359
802.02420065499995872, -0.00170712, -0.00235334, -0.00144173, -0.0378137, 0.525396, 0.16388
802.05751698799997484, -0.001709, -0.00235146, -0.00144929, -0.0378012, 0.524119, 0.16608
802.09083343099996455, -0.001711, -0.00235043, -0.00146036, -0.0374329, 0.52311, 0.168683
802.12414971199996216, -0.00171397, -0.0023505, -0.00147422, -0.0368082, 0.522462, 0.17232
802.15746601199998622, -0.00171597, -0.00235059, -0.00148273, -0.0363967, 0.521978, 0.174422
802.19078235000006316, -0.00171739, -0.00234699, -0.00149818, -0.0361924, 0.518427, 0.175801
802.2240986829999656, -0.00172083, -0.00233766, -0.00153542, -0.0357967, 0.509211, 0.178632
802.25741606899998715, -0.00172345, -0.00233953, -0.00154475, -0.0350769, 0.509391, 0.181581
802.29088137799999458, -0.00172453, -0.0023394, -0.00154971, -0.0348173, 0.50856, 0.182178
802.32419869800003198, -0.00172585, -0.00233671, -0.00156325, -0.0345573, 0.505559, 0.183669
802.35751404500001627, -0.00172625, -0.00233339, -0.0015705, -0.0346891, 0.502866, 0.183747
802.39083034500004032, -0.00172712, -0.00233152, -0.00157554, -0.0348068, 0.50184, 0.184775
802.42414668300000358, -0.00172732, -0.00232897, -0.00157848, -0.0350157, 0.500184, 0.184321
802.45746298300002763, -0.00172813, -0.00232548, -0.00158232, -0.0353764, 0.498375, 0.183837
802.49077934499996445, -0.00172929, -0.00232519, -0.00158494, -0.0353426, 0.498481, 0.184891
802.52409571199996208, -0.00172964, -0.00232019, -0.00158882, -0.0358166, 0.496612, 0.18456
802.55741201700004694, -0.00172914, -0.00231602, -0.00158924, -0.0363019, 0.494736, 0.182965
802.59072837799999434, -0.00172891, -0.00231716, -0.00158574, -0.036317, 0.495633, 0.182361
802.62419465000004948, -0.00172956, -0.00232123, -0.00158583, -0.0358451, 0.497116, 0.183785
802.6575110170000471, -0.00172951, -0.00232392, -0.00158349, -0.0356671, 0.49856, 0.184152
802.6908273779999945, -0.00173031, -0.00232395, -0.00158622, -0.0356032, 0.498665, 0.185211
802.72414365500003441, -0.00173239, -0.00232107, -0.00159764, -0.0354505, 0.495943, 0.187481
802.75746004500001618, -0.00173265, -0.00232054, -0.00160024, -0.0355154, 0.496264, 0.187921
802.79077634999998736, -0.00173546, -0.00232144, -0.00160451, -0.0350114, 0.49426, 0.189984
802.82409265000001142, -0.00173746, -0.0023206, -0.00161053, -0.0346817, 0.491866, 0.191944
802.85740907399997468, -0.00173861, -0.00231664, -0.00161786, -0.0350276, 0.489274, 0.191981
802.89072535000002517, -0.0017398, -0.00231203, -0.00162743, -0.0352997, 0.486014, 0.192732
802.92404171199996199, -0.0017398, -0.00230963, -0.00162963, -0.0355726, 0.484418, 0.192116
802.95750801200006208, -0.00174042, -0.00230972, -0.00162902, -0.0354676, 0.483769, 0.192382
802.99082435000002533, -0.00174034, -0.0023085, -0.00162751, -0.0356031, 0.482272, 0.191441
803.02414071199996215, -0.00174057, -0.00231031, -0.00162632, -0.0353634, 0.483602, 0.191929
803.05745704499997828, -0.00174073, -0.00230759, -0.00163176, -0.035663, 0.48183, 0.192118
803.09077334500000234, -0.00174084, -0.00230587, -0.00163207, -0.035625, 0.479019, 0.192259
803.12409005899996828, -0.00174073, -0.00230801, -0.00163071, -0.0355391, 0.481774, 0.192278
803.15740598299998965, -0.00174116, -0.00231116, -0.00162798, -0.0351732, 0.48509, 0.193263
803.19072237800003222, -0.00174189, -0.00231082, -0.00163069, -0.0351333, 0.485083, 0.194377
803.22403867800005628, -0.00174299, -0.00230781, -0.00164419, -0.0351299, 0.481312, 0.19776
803.25735504500005391, -0.0017437, -0.0023087, -0.00164803, -0.0350088, 0.482378, 0.198976
803.29067135000002509, -0.00174352, -0.00231324, -0.00162963, -0.0353807, 0.489359, 0.193098
803.32413767800005644, -0.00174371, -0.00231444, -0.00162704, -0.0352011, 0.490914, 0.19318
803.35745401600001969, -0.00174388, -0.002315, -0.00162678, -0.0352208, 0.491786, 0.193038
803.39077037799995651, -0.00174408, -0.00231439, -0.00162772, -0.0357357, 0.491531, 0.191456
803.4240866879999885, -0.00174397, -0.00231316, -0.00163117, -0.0359446, 0.489873, 0.191558
803.45740304499997819, -0.00174354, -0.00231266, -0.00163197, -0.0360487, 0.489563, 0.191332
803.49071935000006306, -0.00174373, -0.00231224, -0.00163261, -0.0357723, 0.489684, 0.192548
803.52403571199999988, -0.00174508, -0.00231444, -0.00163166, -0.0356823, 0.492084, 0.192473
803.55735204500001601, -0.00174495, -0.0023134, -0.00163284, -0.0359461, 0.490762, 0.191943
803.59066837800003213, -0.00174518, -0.0023139, -0.00163427, -0.0357989, 0.490804, 0.192748
803.62398467800005619, -0.0017442, -0.00231196, -0.00163481, -0.0361491, 0.489347, 0.191796
803.65745101599998179, -0.00174562, -0.00231103, -0.00163336, -0.0365582, 0.488095, 0.190311
803.69076737800003229, -0.00174622, -0.00231088, -0.00163296, -0.0363379, 0.488158, 0.190936
803.72408368300000348, -0.00174434, -0.00230933, -0.00163587, -0.0363789, 0.486635, 0.191215
803.7574000160000196, -0.00174371, -0.00230872, -0.00163881, -0.0361484, 0.485864, 0.192207
803.79071634499996435, -0.00174404, -0.00230768, -0.00163597, -0.0359452, 0.486275, 0.191947
803.82403267799998048, -0.001744, -0.00230725, -0.00163226, -0.0358501, 0.487245, 0.191225
803.8573490449999781, -0.00174386, -0.0023073, -0.00162813, -0.0356526, 0.488599, 0.190829
803.89066537799999423, -0.00174378, -0.00230705, -0.00162541, -0.035404, 0.489367, 0.190787
803.92398167800001829, -0.00174474, -0.00230964, -0.00162513, -0.0350897, 0.491167, 0.191247
803.95729804500001592, -0.0017448, -0.00230949, -0.00161996, -0.0349682, 0.492783, 0.190514
803.99061434500003998, -0.00174717, -0.00231042, -0.00161388, -0.0348972, 0.495062, 0.189894
804.02408067800001845, -0.00174666, -0.00230965, -0.00161334, -0.034588, 0.495915, 0.189824
804.05739701200002401, -0.00174624, -0.00231066, -0.00161825, -0.0344393, 0.495744, 0.190386
804.09071334500004014, -0.00174695, -0.00231144, -0.00161131, -0.0340049, 0.49918, 0.189354
804.12402971200003776, -0.00174756, -0.00231321, -0.00160798, -0.0338643, 0.500867, 0.189065
804.15734601600001952, -0.0017482, -0.0023155, -0.00160865, -0.0338581, 0.501153, 0.189391
804.19066237799995633, -0.00174844, -0.00231801, -0.00161111, -0.0337372, 0.50174, 0.189647
804.22397867799998039, -0.00174896, -0.00231974, -0.00161105, -0.0338885, 0.501387, 0.189927
804.25729501600005733, -0.00174922, -0.0023224, -0.00161328, -0.0338476, 0.50171, 0.190137
804.29061134500000207, -0.00174898, -0.00232501, -0.00161809, -0.0336205, 0.502443, 0.190295
804.32392771100001028, -0.00174871, -0.00232689, -0.00162176, -0.0336163, 0.502307, 0.190537
804.35739404499997818, -0.00174928, -0.00232967, -0.0016228, -0.0336237, 0.502384, 0.190745
804.39071037799999431, -0.00175018, -0.0023306, -0.00161754, -0.033474, 0.50346, 0.190527
804.42402671100001044, -0.00175165, -0.00233589, -0.00161343, -0.0334462, 0.504516, 0.190659
804.45734304500001599, -0.00175177, -0.0023358, -0.001613, -0.0331783, 0.505498, 0.190233
804.49065934500004005, -0.00175196, -0.00233824, -0.00161719, -0.0332512, 0.505243, 0.190401
804.52397567800005618, -0.0017525, -0.00234339, -0.00162086, -0.0332568, 0.505417, 0.190542
804.55729201099995862, -0.0017528, -0.00234527, -0.00162106, -0.0331527, 0.505847, 0.190472
804.59060837799995625, -0.00175353, -0.00235115, -0.00162877, -0.0329495, 0.506442, 0.1902
804.6239246779999803, -0.00175449, -0.00235299, -0.00162956, -0.032652, 0.50724, 0.189858
804.65724104499997793, -0.00175446, -0.00234913, -0.00162339, -0.0324955, 0.507644, 0.189767
804.69055734500000199, -0.00175528, -0.00235417, -0.00162654, -0.0324669, 0.50782, 0.189724
804.72402367799998046, -0.00175552, -0.00235755, -0.00163104, -0.0323876, 0.507986, 0.189526
804.75734001099999659, -0.00175314, -0.0023466, -0.0016304, -0.0323572, 0.507724, 0.189287
804.79065637799999422, -0.00175195, -0.00234904, -0.00163363, -0.0325419, 0.507364, 0.189329
804.8239726829999654, -0.00175215, -0.00235284, -0.00163005, -0.0327313, 0.50723, 0.189736
804.8572890450000159, -0.00175143, -0.0023526, -0.00163419, -0.0328582, 0.506997, 0.189609
804.89060534999998708, -0.001751, -0.00234922, -0.00163174, -0.0328672, 0.507038, 0.189723
804.92392171100004816, -0.00175131, -0.0023507, -0.00163787, -0.0330777, 0.506678, 0.189469
804.95723804500005372, -0.00175105, -0.00235102, -0.0016435, -0.0330557, 0.506583, 0.18913
804.99055437799995616, -0.00175136, -0.00234758, -0.00163796, -0.0328905, 0.506875, 0.189429
805.02387071099997229, -0.00175057, -0.0023458, -0.00163789, -0.0330554, 0.506795, 0.189453
805.05733701099995869, -0.00175147, -0.00235258, -0.00164061, -0.0327964, 0.506728, 0.189288
805.09065334499996425, -0.0017517, -0.00235544, -0.00164071, -0.0327791, 0.50664, 0.189288
805.12396967799998038, -0.00175133, -0.00235243, -0.00164041, -0.0327601, 0.506778, 0.189327
805.157286044999978, -0.00175132, -0.0023554, -0.0016413, -0.0328758, 0.506617, 0.18925
805.19060234500000206, -0.00175131, -0.00235531, -0.00163964, -0.0329776, 0.506646, 0.189336
805.22391867800001819, -0.00175128, -0.0023541, -0.00163483, -0.0329116, 0.506786, 0.189708
805.25723498800005018, -0.00175094, -0.00235129, -0.00163708, -0.0329238, 0.506895, 0.189541
805.29055134500003987, -0.00175051, -0.00235266, -0.00163798, -0.0331193, 0.506907, 0.189434
805.323867678000056, -0.00174917, -0.00235992, -0.00164207, -0.033274, 0.506362, 0.188951
805.35718416800000341, -0.0017495, -0.00236746, -0.00163615, -0.0332616, 0.505913, 0.189373
805.39050037799995607, -0.00174956, -0.00236947, -0.00163343, -0.0332402, 0.505804, 0.189592
805.42396671100004824, -0.00174972, -0.0023719, -0.00163232, -0.0332516, 0.505634, 0.189656
805.45728312100004587, -0.00174858, -0.0023735, -0.00163497, -0.033262, 0.505384, 0.189377
805.49059934499996416, -0.00174686, -0.00238364, -0.00164331, -0.0341147, 0.505265, 0.187845
805.52391571099997236, -0.00174685, -0.00238389, -0.00164423, -0.0341277, 0.505227, 0.187757
805.55723198299995147, -0.00174813, -0.00239658, -0.00164232, -0.0342358, 0.504132, 0.187838
805.59054837799999405, -0.00174804, -0.00238451, -0.00163498, -0.0337573, 0.504936, 0.188969
805.62386471100001017, -0.00174773, -0.00237813, -0.00162542, -0.0335209, 0.505579, 0.190047
805.65718101100003423, -0.0017475, -0.00238143, -0.00162904, -0.033703, 0.505341, 0.189519
805.69049737800003186, -0.00174741, -0.0023839, -0.00162943, -0.0338091, 0.505235, 0.18939
805.72381367800005592, -0.0017466, -0.00238863, -0.00163535, -0.0340385, 0.504898, 0.188661
805.75728001100003439, -0.00174658, -0.00239712, -0.00163539, -0.0342064, 0.504123, 0.188456
805.79059634899999764, -0.00174535, -0.00239131, -0.00163543, -0.0341964, 0.504872, 0.188562
805.82391271100004815, -0.00174402, -0.00239228, -0.0016441, -0.0344036, 0.504814, 0.187549
805.85722901600001933, -0.00174254, -0.00239201, -0.00165666, -0.0347531, 0.505029, 0.186052
805.89054534499996407, -0.00174123, -0.00239271, -0.00166542, -0.0349838, 0.505053, 0.18502
805.92386171099997227, -0.00173983, -0.00240136, -0.00167988, -0.0356482, 0.504635, 0.182991
805.95717804499997783, -0.00174163, -0.00241559, -0.00167719, -0.0356799, 0.502644, 0.182988
805.99049437799999396, -0.00174282, -0.00242944, -0.00166883, -0.0353888, 0.500101, 0.183687
806.02381071100001009, -0.00174281, -0.00243534, -0.00167216, -0.0354956, 0.499225, 0.183156
806.05712704500001564, -0.00174087, -0.00244406, -0.00169401, -0.0360633, 0.497954, 0.180231
806.09059337799999412, -0.00173893, -0.00244811, -0.00171402, -0.0364336, 0.497101, 0.177766
806.12390971100001025, -0.00173838, -0.00246153, -0.00173325, -0.0369795, 0.49502, 0.175106
806.15722601599998143, -0.00174208, -0.00248178, -0.00173035, -0.0370833, 0.491881, 0.174935
806.19054237800003193, -0.00174804, -0.00250408, -0.00171092, -0.0367452, 0.488071, 0.176627
806.22385871100004806, -0.0017506, -0.00252248, -0.00171871, -0.0369305, 0.484688, 0.17504
806.25717501600001924, -0.00175443, -0.002546, -0.00172482, -0.0371453, 0.480551, 0.173523
806.29049137799995606, -0.00175575, -0.00255758, -0.00172154, -0.0369837, 0.478278, 0.173477
806.32380767799998011, -0.00175628, -0.00257008, -0.00172832, -0.0371648, 0.476132, 0.172285
806.35712404499997774, -0.0017561, -0.00257039, -0.00171958, -0.0369881, 0.476167, 0.173423
806.3904403450000018, -0.0017598, -0.00257742, -0.00172003, -0.0373074, 0.475541, 0.173321
806.42375668299996505, -0.00176766, -0.0025909, -0.00174012, -0.0381451, 0.473771, 0.170616
806.4572230449999779, -0.00176921, -0.00258972, -0.00174697, -0.0381659, 0.473419, 0.169517
806.49053931599996758, -0.00177179, -0.00260121, -0.00173858, -0.0380652, 0.471395, 0.170273
806.52385742100000243, -0.00177268, -0.00261364, -0.00173172, -0.0379101, 0.469505, 0.170348
806.55717204400002629, -0.0017729, -0.00261481, -0.00173304, -0.0379151, 0.469255, 0.169988
806.59048834899999747, -0.00177332, -0.00261527, -0.00172935, -0.0378884, 0.469273, 0.170567
806.62380468300000302, -0.00177416, -0.00261939, -0.00172322, -0.0378126, 0.468713, 0.171191
806.65712101099995834, -0.00177519, -0.00261919, -0.00171942, -0.0378474, 0.468734, 0.172065
806.69043734900003528, -0.00177497, -0.00262069, -0.00171552, -0.0377866, 0.468568, 0.172461
806.7237537109999721, -0.00177702, -0.00262818, -0.00171319, -0.0377822, 0.467449, 0.172685
806.75707004399998823, -0.00178385, -0.0026411, -0.00172497, -0.0380825, 0.465178, 0.171812
806.79053634900003544, -0.00178722, -0.00264863, -0.00173091, -0.0382013, 0.463912, 0.171225
806.82385271099997226, -0.00178913, -0.00265308, -0.001735, -0.0382439, 0.463295, 0.1705
806.85716904399998839, -0.0017899, -0.0026569, -0.00173362, -0.0382152, 0.462882, 0.170509
806.89048537799999394, -0.00179086, -0.0026639, -0.00173097, -0.0381846, 0.462077, 0.170832
806.92380171100001007, -0.00179093, -0.00266228, -0.00173284, -0.0382086, 0.462241, 0.17067
806.9571180440000262, -0.00179098, -0.00266114, -0.00173249, -0.0382152, 0.462363, 0.170747
806.99043434400005026, -0.00179007, -0.00266197, -0.00172224, -0.0381603, 0.462275, 0.171931
807.02374407800004974, -0.00178984, -0.0026593, -0.00172303, -0.0381669, 0.462572, 0.17173
807.05704564300003767, -0.0017898, -0.0026542, -0.00173169, -0.0381793, 0.463273, 0.170312
807.09034775400004946, -0.00179075, -0.00265223, -0.00173382, -0.0382209, 0.46326, 0.170399
807.12379970200004209, -0.00179013, -0.00265208, -0.00173282, -0.0382077, 0.463305, 0.170408
807.15710183800001687, -0.0017897, -0.00265455, -0.00173061, -0.0381751, 0.463236, 0.170422
807.19040387799998371, -0.0017901, -0.00263702, -0.00174617, -0.0382788, 0.463984, 0.169617
807.22370595699999285, -0.001792, -0.00263808, -0.0017448, -0.0383459, 0.463424, 0.170832
807.25700803100005487, -0.00179193, -0.00264063, -0.0017405, -0.0383695, 0.463139, 0.171433
807.29031013300004815, -0.00179202, -0.00263876, -0.00173815, -0.0384086, 0.463035, 0.171759
807.32361220699999649, -0.00179232, -0.00263268, -0.0017385, -0.0384967, 0.462745, 0.172535
807.35691425699997126, -0.00179273, -0.00262292, -0.00174529, -0.0385334, 0.462646, 0.172822
807.39021632200001477, -0.00179216, -0.00262036, -0.00174938, -0.038493, 0.462874, 0.172376
807.42351842899995518, -0.00179179, -0.00260855, -0.00175342, -0.0385162, 0.462868, 0.171977
807.45697041000005356, -0.00179134, -0.00260637, -0.00175227, -0.0385379, 0.462848, 0.171773
807.4902724840000019, -0.00179174, -0.00260299, -0.00175451, -0.0385154, 0.462794, 0.171865
807.52357452499995816, -0.00179172, -0.00260225, -0.00175667, -0.0384633, 0.462969, 0.171654
807.55687666100004662, -0.00179108, -0.00259854, -0.00175513, -0.0385228, 0.462652, 0.171489
807.59017905400003201, -0.0017916, -0.00259088, -0.00175486, -0.038596, 0.461783, 0.172077
807.62348080900005698, -0.00179151, -0.00258795, -0.00175392, -0.0386416, 0.461401, 0.172095
807.65678284900002382, -0.00179131, -0.00258984, -0.00175264, -0.0386695, 0.461518, 0.171964
807.69008495599996422, -0.00179126, -0.00257747, -0.00175137, -0.0387353, 0.459896, 0.172012
807.72338699700003417, -0.00179308, -0.00256648, -0.00175365, -0.0386744, 0.458408, 0.173068
807.75668907600004331, -0.00179396, -0.00256414, -0.00175312, -0.0386914, 0.45803, 0.173191
807.7899911780000366, -0.00179364, -0.00255948, -0.00175168, -0.0387676, 0.456972, 0.173337
807.8234431550000636, -0.00179321, -0.00255236, -0.0017532, -0.0386462, 0.456086, 0.173593
807.856745262000004, -0.00179285, -0.00254282, -0.00175216, -0.0385351, 0.454731, 0.173416
807.89004733599995234, -0.00179283, -0.00254115, -0.00175157, -0.0385604, 0.454175, 0.173552
807.92334941000001436, -0.00179202, -0.00253477, -0.00174952, -0.0385555, 0.452638, 0.173422
807.95665148399996269, -0.00179118, -0.00252972, -0.00174803, -0.0385388, 0.451359, 0.17336
807.98995355800002471, -0.00179092, -0.00252481, -0.00174329, -0.0386606, 0.449283, 0.173021
808.02326184499997908, -0.00179116, -0.00252313, -0.00174255, -0.0386794, 0.448305, 0.17356
808.05657861600002434, -0.00179191, -0.00252357, -0.00174221, -0.0387045, 0.448357, 0.173546
808.0898949160000484, -0.00179194, -0.00252273, -0.00174147, -0.0387324, 0.447759, 0.173742
808.12321125000005395, -0.00179024, -0.00250755, -0.0017255, -0.0390808, 0.438416, 0.173682
808.1565275880000172, -0.00179006, -0.00250576, -0.00172129, -0.0392377, 0.436272, 0.173657
808.18999395000003005, -0.00178821, -0.00250076, -0.00171409, -0.039392, 0.432598, 0.172927
808.22331028300004618, -0.00178772, -0.0024997, -0.00171532, -0.0393028, 0.432622, 0.173182
808.25662658800001736, -0.00178785, -0.00249966, -0.00171351, -0.0393998, 0.431735, 0.17296
808.28994291599997268, -0.0017878, -0.00250027, -0.00170545, -0.0397857, 0.427963, 0.172485
808.32325924999997824, -0.00178824, -0.00249963, -0.00169813, -0.04004, 0.424605, 0.171592
808.35657558800005518, -0.00178967, -0.00250144, -0.00169783, -0.0401246, 0.423196, 0.172582
808.38989194999999199, -0.00179083, -0.00250248, -0.00169618, -0.0402475, 0.422524, 0.172317
808.42320825399997375, -0.00179209, -0.0025044, -0.00169353, -0.0404199, 0.42073, 0.172656
808.45652461600002425, -0.00179414, -0.00250677, -0.00169112, -0.0407234, 0.419508, 0.172168
808.48984095000002981, -0.00179438, -0.00250426, -0.00169163, -0.0404131, 0.418707, 0.173373
808.52315725000005386, -0.00179526, -0.00250559, -0.00169055, -0.0404514, 0.417252, 0.173462
808.5566236109999636, -0.00179452, -0.00250395, -0.00169341, -0.0404147, 0.41938, 0.17404
808.58993992099999559, -0.0017964, -0.00250474, -0.00169081, -0.0403275, 0.417201, 0.174485
808.62325625400001172, -0.00179564, -0.00250334, -0.00169091, -0.0400826, 0.416521, 0.174754
808.65657261600006223, -0.00179819, -0.00250631, -0.00169029, -0.0403519, 0.415397, 0.174301
808.68988894999995409, -0.00179867, -0.00250831, -0.0016904, -0.0405635, 0.414238, 0.174189
808.72320528299997022, -0.00179942, -0.00250867, -0.0016902, -0.0405518, 0.413498, 0.174838
808.75652161599998635, -0.00179943, -0.00250732, -0.00169013, -0.0403868, 0.413454, 0.175845
808.78983794900000248, -0.00180004, -0.00250824, -0.00169033, -0.0408155, 0.414389, 0.174534
808.82315428300000804, -0.0018004, -0.00250669, -0.0016903, -0.0408928, 0.416107, 0.174025
808.85647058799997922, -0.00180152, -0.00250708, -0.00168978, -0.0412809, 0.416907, 0.17272
808.88993692099995769, -0.00180268, -0.0025125, -0.00168829, -0.0418056, 0.414558, 0.171236
808.92325325399997382, -0.00180171, -0.00251012, -0.00168795, -0.0415081, 0.414999, 0.172253
808.95656958799997938, -0.00180039, -0.00250748, -0.00168875, -0.0413208, 0.415977, 0.172964
808.98988594900004045, -0.00179943, -0.0025083, -0.00169021, -0.0409534, 0.414249, 0.175285
809.02320225400001164, -0.00179789, -0.00250835, -0.00169153, -0.0406082, 0.413392, 0.176841
809.05651858800001719, -0.00179947, -0.00250961, -0.00169302, -0.0406478, 0.412877, 0.177332
809.08983494899996458, -0.00179991, -0.00250891, -0.00169222, -0.040682, 0.414019, 0.176717
809.12315128299997014, -0.00179976, -0.00251042, -0.00169138, -0.0404113, 0.413967, 0.177726
809.15646761599998626, -0.00180154, -0.00251352, -0.00169128, -0.0403078, 0.412776, 0.178883
809.18978391600001032, -0.00179913, -0.00250959, -0.00168996, -0.040113, 0.41539, 0.178535
809.22325025400004961, -0.00179811, -0.00250887, -0.00168833, -0.0401094, 0.416197, 0.17782
809.25656658800005516, -0.00179956, -0.00251152, -0.00168854, -0.0400487, 0.415188, 0.179075
809.28988291600001048, -0.00179377, -0.00250624, -0.00168569, -0.0403424, 0.417482, 0.177314
809.32319925399997373, -0.00179142, -0.00249989, -0.00168327, -0.0402965, 0.420895, 0.175883
809.35651561600002424, -0.00179098, -0.00249951, -0.00168243, -0.0402452, 0.421811, 0.175674
809.3898319160000483, -0.00178963, -0.0024983, -0.00168104, -0.0402584, 0.423003, 0.175245
809.42314825400001155, -0.00178869, -0.00249433, -0.00167852, -0.0401992, 0.425081, 0.173918
809.45646461600006205, -0.00178804, -0.00249381, -0.00167739, -0.0401127, 0.425972, 0.173571
809.48978092100003323, -0.00178708, -0.00249333, -0.00167649, -0.04013, 0.426266, 0.173478
809.52309747799995421, -0.00178588, -0.00249186, -0.00167531, -0.0402171, 0.426614, 0.173086
809.5564135869999518, -0.00178689, -0.00249263, -0.00167846, -0.0403529, 0.424956, 0.173259
809.58987994899996465, -0.0017865, -0.00249332, -0.00167777, -0.0403732, 0.425043, 0.173801
809.62319628299997021, -0.00178653, -0.00249405, -0.00167832, -0.0403078, 0.42513, 0.174072
809.65651258699995196, -0.0017863, -0.00249434, -0.00167851, -0.0402152, 0.425391, 0.174023
809.68982891600001039, -0.00178565, -0.00249296, -0.00167715, -0.0402519, 0.42574, 0.173521
809.72314522099998158, -0.0017837, -0.0024898, -0.0016751, -0.0402991, 0.426478, 0.172273
809.75646159200005059, -0.00178416, -0.00249212, -0.00167621, -0.0400983, 0.426651, 0.172843
809.78977792099999533, -0.00178455, -0.00249419, -0.00167747, -0.0401042, 0.42612, 0.173541
809.82309428300004583, -0.00178456, -0.00249582, -0.00167704, -0.0400539, 0.426294, 0.174004
809.85641058700002759, -0.00178519, -0.00250068, -0.00167731, -0.03995, 0.426164, 0.175394
809.88972694899996441, -0.00178668, -0.00250422, -0.00167963, -0.0399121, 0.425593, 0.176389
809.92319322100001955, -0.00178891, -0.00251059, -0.00168263, -0.0397213, 0.42524, 0.177858
809.95650958700002775, -0.0017887, -0.00251064, -0.0016828, -0.0397068, 0.425255, 0.177798
809.98982594899996457, -0.00178953, -0.00251091, -0.00168466, -0.0396879, 0.424885, 0.177846
810.02314224500003093, -0.00178987, -0.00251176, -0.00168568, -0.0396499, 0.424822, 0.177938
810.05645861599998625, -0.00179038, -0.00251341, -0.00168498, -0.0396516, 0.424768, 0.17833
810.08977492099995743, -0.00178988, -0.00251607, -0.00168343, -0.039567, 0.425166, 0.17869
810.12309124900002644, -0.00179018, -0.00251849, -0.00168384, -0.0394912, 0.425297, 0.179011
810.15640758699998969, -0.00179066, -0.00251938, -0.00168488, -0.0395158, 0.425071, 0.179184
810.18972394900004019, -0.0017915, -0.00252448, -0.00168431, -0.0394351, 0.425276, 0.179981
810.22304028300004575, -0.00179243, -0.00252776, -0.00168568, -0.039406, 0.425124, 0.180421
810.2563565870000275, -0.00179307, -0.0025349, -0.00168776, -0.0392462, 0.42536, 0.181102
810.2898229209999954, -0.00179317, -0.00253329, -0.0016889, -0.0392895, 0.42515, 0.180865
810.32313924900006441, -0.00179318, -0.0025326, -0.00168964, -0.0392649, 0.425169, 0.180656
810.35645561600006204, -0.00179271, -0.00253491, -0.00169131, -0.0392164, 0.425164, 0.180827
810.38977194899996448, -0.00179273, -0.00253419, -0.00169315, -0.0392236, 0.425023, 0.180663
810.42308828299997003, -0.00179268, -0.00253506, -0.00169247, -0.0392249, 0.425042, 0.180814
810.45640458699995179, -0.00179229, -0.00253842, -0.00169204, -0.039105, 0.425375, 0.181037
810.48972094900000229, -0.00179256, -0.00254262, -0.00169195, -0.0390186, 0.42549, 0.181349
810.52303725399997347, -0.001793, -0.00254185, -0.00169417, -0.0390827, 0.425202, 0.181265
810.5563535869999896, -0.00179331, -0.00253888, -0.00169615, -0.039147, 0.424992, 0.180988
810.58966992099999516, -0.00179385, -0.00254201, -0.00169702, -0.0391867, 0.424739, 0.181252
810.62313625399997363, -0.00179383, -0.002538, -0.00169687, -0.0392024, 0.424827, 0.180969
810.65645258699998976, -0.00179382, -0.00253898, -0.00169625, -0.0391757, 0.424875, 0.181025
810.68976892099999532, -0.00179222, -0.00253572, -0.00169233, -0.0391855, 0.425108, 0.181107
810.72308528300004582, -0.001791, -0.00254195, -0.00168607, -0.0391802, 0.42511, 0.181863
810.75640161600006195, -0.00179024, -0.00254858, -0.00168402, -0.0391977, 0.424886, 0.182355
810.78971794899996439, -0.0017898, -0.00255298, -0.00168425, -0.0392647, 0.424582, 0.182624
810.82303424899998845, -0.00178941, -0.00255256, -0.00168483, -0.0393127, 0.424514, 0.182633
810.856350582999994, -0.00178991, -0.00254204, -0.00169843, -0.0395446, 0.424353, 0.181647
810.88966694900000221, -0.00178943, -0.00254983, -0.00169744, -0.0397166, 0.423765, 0.182189
810.92298324900002626, -0.00178928, -0.00255418, -0.00169763, -0.0397148, 0.423514, 0.182277
810.95629955900005825, -0.00178912, -0.00255838, -0.00170178, -0.0397372, 0.423163, 0.182102
810.98976594900000237, -0.00178864, -0.00256518, -0.00170236, -0.0398541, 0.422593, 0.182277
811.02308224900002642, -0.00178878, -0.00256701, -0.0017087, -0.040044, 0.422211, 0.181994
811.05639862099997117, -0.00178821, -0.0025712, -0.00170683, -0.0401031, 0.421871, 0.182202
811.08971488700001373, -0.00178841, -0.00257186, -0.00170995, -0.0401335, 0.421767, 0.181996
811.12303124900006424, -0.0017884, -0.00257693, -0.00171175, -0.0401658, 0.421312, 0.181898
811.15634758199996668, -0.00178836, -0.00257263, -0.00170896, -0.0401155, 0.421733, 0.182076
811.1896639489999643, -0.00178837, -0.00256893, -0.00170769, -0.0399829, 0.422141, 0.182111
811.22298028199998043, -0.00178755, -0.00257393, -0.00170046, -0.0401341, 0.421698, 0.182764
811.25629661599998599, -0.00178753, -0.00256936, -0.00169984, -0.0400724, 0.422173, 0.182844
811.28961294900000212, -0.00178708, -0.0025689, -0.00170141, -0.0400065, 0.422249, 0.182703
811.32307924899998852, -0.00178652, -0.00256878, -0.00170044, -0.0401032, 0.422225, 0.182798
811.35639558699995177, -0.00178655, -0.00255845, -0.00169243, -0.0401263, 0.423391, 0.183613
811.38971194900000228, -0.0017852, -0.00255479, -0.00169276, -0.040281, 0.423807, 0.183736
811.42302825399997346, -0.00178407, -0.00255532, -0.0016925, -0.0404454, 0.423761, 0.183805
811.45634461600002396, -0.00178383, -0.00255334, -0.00170459, -0.0408125, 0.424043, 0.182958
811.48966095399998721, -0.00178486, -0.00254521, -0.00171529, -0.0409355, 0.425005, 0.182193
811.52297725400001127, -0.00178508, -0.00253886, -0.00171623, -0.0409294, 0.425811, 0.182212
811.55629415900000367, -0.00178538, -0.00253375, -0.00173074, -0.0411461, 0.426482, 0.181082
811.58961040099995898, -0.00178491, -0.00253677, -0.00173346, -0.0413481, 0.426155, 0.180893
811.62292625400004908, -0.00178379, -0.00254498, -0.00173058, -0.0412952, 0.425044, 0.181014
811.6562426159999859, -0.00178292, -0.00254481, -0.00173199, -0.0411288, 0.424984, 0.180811
811.68970894899996438, -0.00178263, -0.00254588, -0.00173491, -0.0411867, 0.424848, 0.180524
811.72302528199998051, -0.00178027, -0.00255116, -0.00174422, -0.0414662, 0.424143, 0.179652
811.75634158699995169, -0.00177833, -0.00255547, -0.00175002, -0.0416133, 0.423424, 0.179041
811.78965943499997593, -0.00177655, -0.00255689, -0.00175834, -0.0416152, 0.423152, 0.178134
811.82297428200001832, -0.00177427, -0.00256341, -0.00176794, -0.0417687, 0.422259, 0.177129
811.85629055900005824, -0.00177167, -0.0025772, -0.00177974, -0.0420877, 0.420184, 0.175883
811.88960694900004, -0.00177015, -0.00258683, -0.00178494, -0.0421205, 0.418627, 0.175208
811.92292325400001118, -0.00177079, -0.00259873, -0.00178922, -0.042168, 0.416669, 0.174541
811.95623967799997445, -0.00177155, -0.00261512, -0.00179719, -0.0424139, 0.414001, 0.173576
811.98955594899996413, -0.00177139, -0.00262963, -0.00180476, -0.0425982, 0.411501, 0.172747
812.02302224900006422, -0.00177223, -0.00263513, -0.00180039, -0.0423537, 0.410333, 0.173234
812.05633862499996667, -0.00177047, -0.00264945, -0.00180892, -0.0424814, 0.407647, 0.172423
812.08965494899996429, -0.00177191, -0.00265299, -0.00181069, -0.042491, 0.407066, 0.172148
812.12297124899998835, -0.00177159, -0.00265098, -0.00180755, -0.0423313, 0.407446, 0.172427
812.15628758200000448, -0.00177251, -0.00265317, -0.00180712, -0.0422813, 0.407018, 0.172448
812.1896039490000021, -0.00177386, -0.00265846, -0.00180987, -0.0423011, 0.40607, 0.172092
812.22292028200001823, -0.00177369, -0.0026563, -0.00180619, -0.0421196, 0.406462, 0.172421
812.25623661600002379, -0.00177493, -0.00266082, -0.00180797, -0.0420433, 0.405659, 0.172134
812.28955294900003992, -0.00177558, -0.00266337, -0.00181021, -0.042094, 0.405198, 0.171894
812.32286928200005605, -0.00177592, -0.00266408, -0.00180887, -0.0421098, 0.405053, 0.172098
812.35633558200004245, -0.00177916, -0.00267362, -0.00180633, -0.0419232, 0.403499, 0.172453
812.38965188700001363, -0.00178334, -0.00268745, -0.0018148, -0.0419807, 0.400958, 0.171673
812.42296828200005621, -0.0017871, -0.00269606, -0.00182611, -0.0419574, 0.399373, 0.170341
812.45628461600006176, -0.00178732, -0.00269559, -0.00182667, -0.0419796, 0.399416, 0.170239
812.48960092000004352, -0.00179002, -0.00269477, -0.00183359, -0.0422077, 0.399328, 0.169229
812.52291728199998033, -0.00179135, -0.00269309, -0.00183488, -0.0423063, 0.399422, 0.168922
812.55623358200000439, -0.00179165, -0.00269297, -0.00183647, -0.0423374, 0.39942, 0.168714
812.58954994900000202, -0.00178227, -0.00269631, -0.00180004, -0.0415338, 0.399783, 0.173251
812.62286631999995734, -0.0017822, -0.00269671, -0.0018004, -0.0414492, 0.399832, 0.173164
812.65618258699998933, -0.00178821, -0.00270088, -0.00182917, -0.0421331, 0.398346, 0.170215
812.68949894900003983, -0.00178917, -0.00269847, -0.00183171, -0.0422931, 0.398536, 0.16978
812.72296528200001831, -0.0017899, -0.00269784, -0.00182912, -0.0425364, 0.398339, 0.170138
812.75628161600002386, -0.00179024, -0.00269585, -0.0018303, -0.0425999, 0.398536, 0.169926
812.78959794900003999, -0.00179041, -0.00269582, -0.00182385, -0.0425834, 0.398683, 0.170542
812.82291425400001117, -0.00179045, -0.00269276, -0.00182134, -0.0425797, 0.399097, 0.170584
812.85623061600006167, -0.00179049, -0.00269252, -0.00182173, -0.0425901, 0.399108, 0.170545
812.88954691599997204, -0.00179088, -0.00269171, -0.00182307, -0.0426339, 0.399118, 0.170427
812.92286325400004898, -0.00179089, -0.00269339, -0.00182171, -0.0425461, 0.39902, 0.170564
812.9561796159999858, -0.00179173, -0.00269469, -0.00182428, -0.0424898, 0.398833, 0.17041
812.98949589200003629, -0.0017916, -0.00270181, -0.00181908, -0.0423275, 0.39846, 0.171193
813.02281225399997311, -0.00179156, -0.0027028, -0.0018202, -0.0423007, 0.398351, 0.171175
813.05627858200000446, -0.00179283, -0.00270073, -0.00182054, -0.0423255, 0.398479, 0.171002
813.08959491999996771, -0.00179298, -0.00270258, -0.00182168, -0.0423645, 0.398252, 0.171103
813.12291125399997327, -0.00179312, -0.00270427, -0.0018211, -0.0422793, 0.398198, 0.17119
813.15622758200004228, -0.00179324, -0.00270639, -0.00182013, -0.0423847, 0.398039, 0.171363
813.18954392000000553, -0.00179195, -0.00270617, -0.00181202, -0.0425744, 0.398423, 0.17153
813.22286022000002959, -0.00179148, -0.00270659, -0.00180947, -0.0426056, 0.398495, 0.171592
813.25617658700002721, -0.00179086, -0.00271025, -0.00180381, -0.0426945, 0.398627, 0.171782
813.28949370099996941, -0.00179166, -0.00270874, -0.00180152, -0.0427684, 0.398723, 0.171699
813.32280928199998016, -0.00179123, -0.00271024, -0.00179595, -0.0428468, 0.39889, 0.171733
813.35612561499999629, -0.00178984, -0.00271548, -0.00179139, -0.042847, 0.399066, 0.1719
813.38944191999996747, -0.00178909, -0.00271838, -0.00179058, -0.0428182, 0.399089, 0.172017
813.42290825400004906, -0.00178685, -0.00271831, -0.00178658, -0.0428151, 0.399391, 0.171911
813.45622461499999645, -0.0017853, -0.00272223, -0.00178182, -0.0427449, 0.399807, 0.171933
813.489540949000002, -0.0017853, -0.00272223, -0.00178182, -0.0427449, 0.399807, 0.171933
813.52285728200001813, -0.00177906, -0.0027234, -0.00175668, -0.0424514, 0.402165, 0.171089
813.55617361500003426, -0.00177542, -0.00273089, -0.00173692, -0.0422567, 0.403934, 0.170687
813.58948994900003981, -0.001773, -0.00273263, -0.00171655, -0.0421705, 0.405616, 0.169997
813.62280624900006387, -0.00177075, -0.00272844, -0.00170102, -0.0422117, 0.406766, 0.169238
813.65612261499995839, -0.00176872, -0.00272131, -0.00168327, -0.0422615, 0.408059, 0.168264
813.68943891499998244, -0.0017671, -0.00271801, -0.00167548, -0.0421417, 0.408917, 0.167795
813.72275528199998007, -0.00176578, -0.00271632, -0.0016684, -0.042065, 0.409626, 0.167439
813.75622158700002728, -0.00176413, -0.00271311, -0.00165821, -0.0420166, 0.41053, 0.166914
813.78953788700005134, -0.00176299, -0.00271042, -0.00165219, -0.0419448, 0.411152, 0.166561
813.82285428199998023, -0.00176174, -0.00270799, -0.00164791, -0.0417066, 0.411994, 0.166238
813.85617061499999636, -0.00176138, -0.00270722, -0.00164449, -0.0417115, 0.412235, 0.166103
813.88948694900000191, -0.00175995, -0.00270526, -0.00162796, -0.0419526, 0.41289, 0.165679
813.92280328200001804, -0.00175796, -0.00269463, -0.00160302, -0.042225, 0.414082, 0.164731
813.95611961500003417, -0.00175682, -0.00268297, -0.00159275, -0.0424711, 0.41451, 0.16401
813.98943592000000535, -0.0017566, -0.00267527, -0.00158605, -0.0426983, 0.414649, 0.163583
814.02275225300002148, -0.00175645, -0.00267464, -0.00158234, -0.0428022, 0.414688, 0.163541
814.0560686149999583, -0.001757, -0.00267585, -0.00158085, -0.0429024, 0.414577, 0.1636
814.08938506300000881, -0.00175724, -0.00267498, -0.00158079, -0.0429915, 0.414457, 0.163563
814.12285124900006394, -0.0017573, -0.00267666, -0.00158006, -0.0430265, 0.414421, 0.163638
814.15616761499995846, -0.00175713, -0.00269449, -0.00158484, -0.0434897, 0.413385, 0.164348
814.18948394899996401, -0.00175771, -0.00271101, -0.001588, -0.0437537, 0.412699, 0.164976
814.22280028199998014, -0.00175815, -0.00271623, -0.00158936, -0.0437499, 0.412541, 0.165163
814.25611661499999627, -0.00175802, -0.00271384, -0.00158787, -0.0437601, 0.412642, 0.165097
814.28943294900000183, -0.00175859, -0.00271923, -0.00159024, -0.0438172, 0.412377, 0.165248
814.32274925299998358, -0.0017596, -0.00272885, -0.00159137, -0.0438051, 0.412062, 0.165561
814.35606561500003409, -0.00175934, -0.00273053, -0.00159142, -0.043738, 0.412059, 0.165613
814.38938191500005814, -0.00176017, -0.00273701, -0.00159131, -0.043623, 0.411928, 0.165808
814.42269827200004784, -0.001762, -0.00275304, -0.00159562, -0.04371, 0.411131, 0.166151
814.45616458200004217, -0.00176122, -0.0027592, -0.00160479, -0.0437948, 0.410541, 0.16601
814.48948092000000543, -0.00176182, -0.00276516, -0.00160624, -0.0437382, 0.410295, 0.166103
814.52279728200005593, -0.00176277, -0.00277113, -0.00160671, -0.0437021, 0.410048, 0.166221
814.55611361499995837, -0.00176354, -0.00277879, -0.00160957, -0.043675, 0.409637, 0.166248
814.58942991499998243, -0.0017636, -0.00277877, -0.00160904, -0.0436693, 0.409659, 0.166268
814.62274628700004087, -0.0017634, -0.00278084, -0.00160895, -0.0436339, 0.409603, 0.166305
814.65606255800003055, -0.00176379, -0.00278491, -0.00161114, -0.0435548, 0.409419, 0.166224
814.68937891999996737, -0.00176408, -0.00279115, -0.00160274, -0.0433197, 0.409545, 0.166589
814.7226952490000258, -0.00176424, -0.00279232, -0.00160365, -0.0432958, 0.409483, 0.166542
814.756011615000034, -0.001764, -0.00279477, -0.00160224, -0.0431983, 0.409503, 0.166575
814.78932791500005806, -0.00176359, -0.00279572, -0.00160045, -0.0431432, 0.409569, 0.166636
814.82279428200001803, -0.00176418, -0.00279624, -0.00160437, -0.0431121, 0.409472, 0.166398
814.85611061500003416, -0.00176319, -0.00279829, -0.00159928, -0.0429797, 0.409662, 0.166548
814.88942694900003971, -0.00176311, -0.00279845, -0.00159945, -0.0429296, 0.409705, 0.166484
814.92274325300002147, -0.00176319, -0.00279957, -0.00159811, -0.042897, 0.409714, 0.166536
814.95605958199996621, -0.00176296, -0.00280007, -0.00159593, -0.0428139, 0.409836, 0.166539
814.98937592000004315, -0.0017633, -0.00278318, -0.00160856, -0.0427004, 0.410298, 0.165492
815.0226922489999879, -0.00176343, -0.00278413, -0.00160497, -0.0425588, 0.410478, 0.165504
815.05600858200000403, -0.00176423, -0.00277839, -0.00160607, -0.0424283, 0.41076, 0.165179
815.08932488699997521, -0.0017627, -0.00276949, -0.00160728, -0.042818, 0.410886, 0.165353
815.12264125299998341, -0.00176294, -0.00276752, -0.00161345, -0.0428579, 0.410748, 0.165196
815.15610761499999626, -0.00176287, -0.00276634, -0.00161518, -0.0429204, 0.4107, 0.165174
815.18942391500002032, -0.00176253, -0.00276559, -0.00162115, -0.0429758, 0.410525, 0.165101
815.22274028200001794, -0.00176255, -0.00276567, -0.00162149, -0.0429689, 0.41051, 0.1651
815.256056582000042, -0.00176394, -0.00275921, -0.00161982, -0.0431252, 0.410684, 0.16502
815.28937291500005813, -0.00176483, -0.00275563, -0.00161547, -0.0432169, 0.410882, 0.164954
815.32268924900006368, -0.00176523, -0.00275391, -0.00161573, -0.0432588, 0.410897, 0.164937
815.35600558199996613, -0.00176594, -0.00275121, -0.00161726, -0.0433371, 0.41089, 0.164916
815.38932237200003783, -0.0017658, -0.002752, -0.0016171, -0.0433936, 0.410894, 0.164927
815.42263824899998781, -0.00176623, -0.00275227, -0.0016144, -0.0434506, 0.410961, 0.164881
815.45595458200000394, -0.0017664, -0.00275371, -0.00161343, -0.0434485, 0.410967, 0.164892
815.48942092000004322, -0.0017668, -0.00275453, -0.00161369, -0.0433396, 0.41095, 0.164937
815.5227372199999536, -0.00176727, -0.00275317, -0.00161421, -0.0433214, 0.410923, 0.164952
815.55605361499999617, -0.00176756, -0.00275114, -0.00161231, -0.0433472, 0.410982, 0.164815
815.58936991500002023, -0.00176643, -0.00275596, -0.00161306, -0.0432378, 0.411067, 0.16487
815.62268628200001785, -0.00176677, -0.00275512, -0.00161172, -0.0431932, 0.411076, 0.164867
815.65600261500003398, -0.0017689, -0.00274943, -0.00161233, -0.0434099, 0.410859, 0.164839
815.68931891500005804, -0.00176917, -0.00274901, -0.00161308, -0.0433918, 0.410825, 0.16491
815.72263524799996048, -0.00177049, -0.0027454, -0.00160963, -0.043561, 0.410751, 0.164661
815.75595158700002685, -0.00177222, -0.00273858, -0.00160764, -0.0436163, 0.410469, 0.164607
815.78926792000004298, -0.00177135, -0.00273755, -0.00160691, -0.0435369, 0.410533, 0.16457
815.82258428199997979, -0.00176339, -0.00273583, -0.00161163, -0.0426672, 0.410952, 0.165354
815.85605055799999263, -0.00176202, -0.00273951, -0.00161154, -0.0425165, 0.411268, 0.165392
815.8893669479999744, -0.00176174, -0.00274068, -0.0016143, -0.0424156, 0.411392, 0.165632
815.92268328199997995, -0.00176222, -0.00273942, -0.00161369, -0.0425417, 0.411199, 0.165488
815.95599958700006482, -0.00176182, -0.00274145, -0.00161029, -0.0425889, 0.411406, 0.165154
815.98931594800001221, -0.00175984, -0.00274561, -0.00160909, -0.0423622, 0.412088, 0.165123
816.02263228200001777, -0.00175955, -0.002746, -0.00160815, -0.0423165, 0.412208, 0.165096
816.05594858200004182, -0.00175811, -0.00274982, -0.00160317, -0.042269, 0.412782, 0.164665
816.08926492000000508, -0.00175757, -0.00275201, -0.00160122, -0.0422702, 0.413049, 0.164469
816.12258128200005558, -0.00175717, -0.00275179, -0.00160106, -0.0422371, 0.413099, 0.164455
816.15589758600003734, -0.00175623, -0.00274942, -0.00159377, -0.0420298, 0.413635, 0.164022
816.18936391500005811, -0.00175585, -0.00275845, -0.00158113, -0.0420989, 0.414816, 0.162879
816.22268031999999494, -0.00175585, -0.00276169, -0.00157882, -0.0422191, 0.414973, 0.162617
816.25599661499995818, -0.00175522, -0.00275614, -0.00157734, -0.0419563, 0.415102, 0.162665
816.28931292000004305, -0.00175591, -0.00275714, -0.00156696, -0.0419986, 0.415517, 0.161906
816.32263374800004385, -0.00175561, -0.00275735, -0.00156201, -0.0419181, 0.415906, 0.161602
816.35594558200000392, -0.00175517, -0.00275566, -0.00156219, -0.0418376, 0.415911, 0.16166
816.38926194800001213, -0.0017564, -0.0027709, -0.00156441, -0.0422529, 0.416357, 0.161565
816.42257825299998331, -0.00175616, -0.00277362, -0.00156791, -0.0422654, 0.416415, 0.16177
816.45589462899999944, -0.00175585, -0.00277431, -0.00156304, -0.0422784, 0.416569, 0.161452
816.48921094800004994, -0.00176219, -0.00277435, -0.00153609, -0.0420408, 0.418472, 0.160025
816.52252723900005549, -0.00176175, -0.00277578, -0.0015402, -0.0419928, 0.418519, 0.160314
816.5559935859999996, -0.00176128, -0.00277944, -0.0015394, -0.0419429, 0.418983, 0.160355
816.5893099480000501, -0.00175984, -0.00277953, -0.0015353, -0.0418969, 0.419263, 0.160228
816.62262625300002128, -0.00175788, -0.00278183, -0.00154436, -0.0418509, 0.419201, 0.160756
816.65594258199996602, -0.00175694, -0.00278764, -0.00154819, -0.0419017, 0.419456, 0.160845
816.68925888600006147, -0.00175643, -0.00278523, -0.00154329, -0.0419943, 0.419429, 0.160418
816.72257525300005909, -0.0017571, -0.00278656, -0.00154116, -0.0421073, 0.419402, 0.160165
816.75589161499999591, -0.00175537, -0.00278186, -0.0015413, -0.0417681, 0.419648, 0.160657
816.78920791500001997, -0.00175571, -0.0027811, -0.00153956, -0.0417404, 0.41971, 0.160644
816.82252425299998322, -0.00175783, -0.00277849, -0.00153209, -0.0419964, 0.419329, 0.159988
816.85584058599999935, -0.00175684, -0.00277978, -0.00153684, -0.042111, 0.419007, 0.15994
816.8893069480000122, -0.00175497, -0.00277739, -0.00153856, -0.0420005, 0.418983, 0.160167
816.92262328200001775, -0.00175604, -0.00277057, -0.00153186, -0.0417263, 0.41934, 0.160479
816.95593958200004181, -0.00175486, -0.00277348, -0.00153599, -0.0417968, 0.419224, 0.160449
816.98925592000000506, -0.00175444, -0.00277417, -0.00153705, -0.0418052, 0.419211, 0.160454
817.02257225300002119, -0.00175414, -0.00276703, -0.00153343, -0.0417021, 0.419198, 0.160566
817.05588855300004525, -0.00175264, -0.00276915, -0.00153747, -0.041791, 0.419008, 0.160438
817.08920492000004288, -0.00175151, -0.00277226, -0.00154037, -0.0417507, 0.419119, 0.160539
817.122521253000059, -0.0017505, -0.0027759, -0.00154449, -0.0418829, 0.418921, 0.160305
817.15583758200000375, -0.00174899, -0.00278034, -0.00154922, -0.041914, 0.418863, 0.160265
817.18915391500001988, -0.00174778, -0.00278394, -0.00155129, -0.0417632, 0.419115, 0.160583
817.22247025299998313, -0.00174436, -0.00278817, -0.00155856, -0.0416239, 0.419191, 0.160876
817.25593658200000391, -0.00174454, -0.00278592, -0.00155632, -0.0414848, 0.419387, 0.161182
817.28925294800001211, -0.00174455, -0.00278584, -0.00155572, -0.0414287, 0.419474, 0.161308
817.32256925299998329, -0.00174134, -0.00278437, -0.00155982, -0.041205, 0.419613, 0.161765
817.35588561500003379, -0.00173889, -0.00277837, -0.00156112, -0.0409605, 0.419784, 0.162298
817.38920192000000498, -0.00173512, -0.00276791, -0.00156402, -0.0405342, 0.420096, 0.163224
817.42251828200005548, -0.00173123, -0.00274787, -0.00156687, -0.0401988, 0.4203, 0.163993
817.45583455799999228, -0.0017314, -0.00275129, -0.00156662, -0.0402241, 0.420286, 0.163926
817.48915094799997405, -0.00173015, -0.00275267, -0.00156902, -0.0401864, 0.420283, 0.163962
817.52246725300005892, -0.00172701, -0.00274878, -0.00157364, -0.040135, 0.420307, 0.164029
817.55578358200000366, -0.00172231, -0.00273133, -0.0015825, -0.0400546, 0.420425, 0.164142
817.58924994799997421, -0.00172095, -0.00272751, -0.00158358, -0.0399546, 0.420561, 0.164376
817.62256625300005908, -0.00171994, -0.0027354, -0.00158365, -0.0398316, 0.420556, 0.164601
817.65588258200000382, -0.00171998, -0.00274132, -0.00158456, -0.0399573, 0.420294, 0.164226
817.68919891500001995, -0.00171844, -0.00274486, -0.00158667, -0.0399137, 0.420245, 0.164252
817.7225152529999832, -0.00171574, -0.00273946, -0.0015892, -0.0397556, 0.420559, 0.16463
817.75583158599999933, -0.00171341, -0.00273238, -0.00159108, -0.0395676, 0.420968, 0.165125
817.78914794800004984, -0.00170834, -0.00272137, -0.00159607, -0.0390166, 0.421909, 0.166492
817.82246428099995228, -0.00170521, -0.00271781, -0.00159769, -0.0386019, 0.422457, 0.167527
817.85578061499995783, -0.00170124, -0.00271064, -0.00160147, -0.0382984, 0.423088, 0.168259
817.88909692900006121, -0.00169949, -0.00270856, -0.00160323, -0.0381862, 0.423307, 0.168515
817.92241328099999009, -0.00170003, -0.00271242, -0.001602, -0.0382628, 0.423027, 0.168326
817.9558795809999765, -0.00169909, -0.00271337, -0.00160246, -0.0382035, 0.423021, 0.168464
817.98919591499998205, -0.00169696, -0.00271041, -0.00160547, -0.0381814, 0.423246, 0.168473
818.02251224799999818, -0.0016925, -0.00271006, -0.00160985, -0.0379961, 0.423491, 0.168799
818.05582858100001431, -0.00169215, -0.00271381, -0.00160867, -0.0379017, 0.423308, 0.16902
818.08914491500001986, -0.00168924, -0.00271243, -0.00161121, -0.0377715, 0.423535, 0.169292
818.12246128100002807, -0.00168727, -0.00271581, -0.00161235, -0.0376729, 0.423388, 0.169439
818.15577758100005212, -0.00167981, -0.00271731, -0.00161692, -0.0372048, 0.423788, 0.170389
818.18909391500005768, -0.00167867, -0.00271549, -0.00161796, -0.0371208, 0.424029, 0.170585
818.22241028099995219, -0.00168053, -0.00271293, -0.00161636, -0.0372218, 0.424154, 0.170493
818.25572661499995775, -0.0016796, -0.00271203, -0.00161794, -0.0372782, 0.424237, 0.170314
818.28919294800004991, -0.00167473, -0.00271021, -0.00162427, -0.0372658, 0.424545, 0.170128
818.32250925300002109, -0.00167087, -0.00270941, -0.0016261, -0.0370653, 0.424908, 0.170628
818.35582561499995791, -0.00166714, -0.00270859, -0.00163123, -0.03717, 0.425084, 0.170163
818.38914191900005335, -0.00166531, -0.0027077, -0.00163281, -0.0371586, 0.425262, 0.170156
818.42245828099999017, -0.00166134, -0.00270828, -0.00163581, -0.0370798, 0.425466, 0.17022
818.45577458100001422, -0.00165455, -0.00270659, -0.00164335, -0.0371087, 0.425972, 0.169866
818.48909094800001185, -0.0016549, -0.00270922, -0.00164148, -0.037045, 0.425673, 0.170043
818.52240728100002798, -0.00165345, -0.00271678, -0.00163693, -0.0367191, 0.425108, 0.170915
818.55572361500003353, -0.00164471, -0.00271894, -0.00164106, -0.0364201, 0.425578, 0.171455
818.58903994800004966, -0.00164203, -0.00271943, -0.00164309, -0.0363939, 0.425701, 0.171412
818.62250621900000169, -0.00161757, -0.00272952, -0.00166461, -0.0361915, 0.426108, 0.170573
818.6558225810000522, -0.00160872, -0.0027312, -0.00167152, -0.0360446, 0.426583, 0.170565
818.68913894800004982, -0.0016081, -0.00273294, -0.00167031, -0.035959, 0.426417, 0.170806
818.72245522900004744, -0.00160883, -0.0027375, -0.0016644, -0.0356759, 0.425858, 0.171677
818.7557744340000454, -0.00160508, -0.00274039, -0.00166551, -0.0355008, 0.425813, 0.171973
818.78908791900005326, -0.00160305, -0.00274102, -0.00166717, -0.0354795, 0.42588, 0.171902
818.82240428099999008, -0.00159369, -0.00274236, -0.00167553, -0.0354599, 0.426283, 0.171431
818.85572058100001414, -0.00158738, -0.00274724, -0.00167918, -0.0353462, 0.426037, 0.171363
818.88903691899997739, -0.00158367, -0.00275017, -0.0016826, -0.0353588, 0.425831, 0.171026
818.92235328100002789, -0.00158024, -0.00275156, -0.00168568, -0.035366, 0.425858, 0.170782
818.95566958599999907, -0.00157496, -0.00275648, -0.00169014, -0.0353712, 0.425416, 0.1703
818.98913591899997755, -0.00157295, -0.00275865, -0.00169246, -0.0354231, 0.425209, 0.169942
819.0224522529999831, -0.00156825, -0.00276225, -0.00169549, -0.0353433, 0.425027, 0.169811
819.05576858599999923, -0.00155985, -0.00276603, -0.0017007, -0.035196, 0.425133, 0.169687
819.08908491900001536, -0.00156422, -0.00276841, -0.00169207, -0.0349063, 0.42435, 0.170866
819.12240125300002092, -0.00156413, -0.00276845, -0.0016918, -0.0348866, 0.424362, 0.170935
819.15571761499995773, -0.00156393, -0.0027669, -0.00169176, -0.0348833, 0.424659, 0.170989
819.18903394799997386, -0.0015671, -0.00276353, -0.00168751, -0.0348074, 0.424997, 0.171623
819.22235028099998999, -0.001565, -0.00276195, -0.00169, -0.0348485, 0.425467, 0.171421
819.25566658100001405, -0.00156342, -0.00275648, -0.00169255, -0.0349544, 0.426639, 0.171174
819.28898294800001167, -0.00156282, -0.00275519, -0.00169251, -0.0349345, 0.426882, 0.171284
819.32244925300005889, -0.00156713, -0.00275425, -0.00168936, -0.034982, 0.42672, 0.171448
819.35576558100001421, -0.00157306, -0.00275808, -0.00168463, -0.035, 0.425342, 0.171629
819.38908191500001976, -0.00157292, -0.00275557, -0.00168425, -0.0349616, 0.425908, 0.171857
819.42239828100002796, -0.00157672, -0.0027563, -0.00167964, -0.0346357, 0.425491, 0.173069
819.45571458599999914, -0.00158194, -0.00276321, -0.00167734, -0.0345374, 0.423788, 0.173302
819.48903091900001527, -0.00159052, -0.00276641, -0.00167068, -0.0343128, 0.422391, 0.174497
819.52234728099995209, -0.00158978, -0.00276609, -0.00166901, -0.0340586, 0.422375, 0.175294
819.55566361499995764, -0.00159002, -0.00276677, -0.00166909, -0.0340195, 0.422212, 0.175379
819.58897989100000814, -0.00160067, -0.00276751, -0.00165928, -0.0336033, 0.421831, 0.177302
819.62229625300005864, -0.00160572, -0.00276882, -0.00165661, -0.0335226, 0.421438, 0.177736
819.65561258599996108, -0.00161168, -0.0027701, -0.00165189, -0.0332853, 0.420862, 0.178793
819.68907894799997393, -0.00161869, -0.00277128, -0.00164773, -0.0331519, 0.420326, 0.179597
819.72239528099999006, -0.00162022, -0.00277413, -0.00164817, -0.0330435, 0.419679, 0.179755
819.75571161499999562, -0.0016333, -0.00277735, -0.00163635, -0.0324741, 0.418642, 0.182251
819.78902791500001968, -0.0016348, -0.00277781, -0.00163463, -0.0323683, 0.41858, 0.182654
819.82234428100002788, -0.00163971, -0.00278071, -0.00163229, -0.0320974, 0.417888, 0.183497
819.85566061500003343, -0.00164227, -0.00278439, -0.0016292, -0.0316033, 0.416929, 0.184776
819.88897691900001519, -0.0016432, -0.00278412, -0.00162357, -0.0311141, 0.417552, 0.186183
819.922293280999952, -0.00164451, -0.00278375, -0.00161912, -0.0308632, 0.417991, 0.187095
819.95560961399996813, -0.00164566, -0.00278414, -0.00161751, -0.0307506, 0.417992, 0.187494
819.988925919000053, -0.00165195, -0.00279071, -0.00161533, -0.0302949, 0.416287, 0.188873
820.02239224799996009, -0.00165364, -0.00279235, -0.00161339, -0.0301145, 0.41614, 0.189374
820.05570858099997622, -0.00165606, -0.00279574, -0.00160838, -0.0295059, 0.416148, 0.190999
820.08902491399999235, -0.0016581, -0.00279933, -0.0016044, -0.0287016, 0.416075, 0.192917
820.1223412479999979, -0.00165778, -0.00279984, -0.00160528, -0.0286902, 0.415994, 0.192845
820.15565758100001403, -0.00166102, -0.00280221, -0.00160147, -0.0283199, 0.416039, 0.193912
820.18897391400003016, -0.0016639, -0.00280416, -0.00159987, -0.0281345, 0.415942, 0.194358
820.22229024800003572, -0.00166354, -0.00280643, -0.00160108, -0.0280087, 0.415778, 0.194435
820.25560661400004392, -0.00166553, -0.00280659, -0.00159621, -0.0277517, 0.416211, 0.195344
820.28892294800004947, -0.00166621, -0.0028067, -0.00159459, -0.0276344, 0.416323, 0.195677
820.32223925300002065, -0.00166195, -0.00280828, -0.00160275, -0.0277209, 0.415805, 0.194588
820.35555558600003678, -0.00166288, -0.00280978, -0.00160063, -0.0275361, 0.415753, 0.195104
820.38902191399995445, -0.00166236, -0.00281249, -0.00160212, -0.0274226, 0.415244, 0.195201
820.42233828099995208, -0.00166284, -0.00281383, -0.00160107, -0.0272615, 0.415133, 0.195587
820.45565458600003694, -0.00166331, -0.00281419, -0.00160013, -0.0271731, 0.4152, 0.195737
820.48897094799997376, -0.00166499, -0.00281464, -0.00159729, -0.0270729, 0.415355, 0.196187
820.52228728099998989, -0.00166507, -0.00281548, -0.00159697, -0.0269194, 0.415427, 0.196307
820.55560361400000602, -0.0016637, -0.00281611, -0.00159843, -0.0268359, 0.415413, 0.196136
820.58891989100004594, -0.00166374, -0.00281707, -0.00159805, -0.0266222, 0.415344, 0.196412
820.6222362810000277, -0.00166255, -0.00281707, -0.00159968, -0.0265942, 0.415306, 0.196234
820.65555258599999888, -0.00166534, -0.00281766, -0.00159465, -0.0263492, 0.4157, 0.196932
820.68886966700006269, -0.00166767, -0.0028186, -0.00159091, -0.0262015, 0.415803, 0.197533
820.72233525199999349, -0.00166802, -0.00281936, -0.00159018, -0.0261437, 0.415725, 0.197754
820.75565165199998319, -0.00167089, -0.00282047, -0.00158541, -0.0260196, 0.415946, 0.19837
820.78896797599998081, -0.00167444, -0.00282082, -0.00157941, -0.025825, 0.416377, 0.198927
820.82228424799995992, -0.00167862, -0.00282277, -0.00157391, -0.0256716, 0.416572, 0.199818
820.85560061399996812, -0.00168723, -0.00282453, -0.00156174, -0.0254609, 0.417376, 0.201138
820.88891691399999218, -0.00168819, -0.00282417, -0.00155957, -0.0254494, 0.417517, 0.201265
820.9222332809999898, -0.00169202, -0.00282704, -0.00155607, -0.0254512, 0.417549, 0.201819
820.95554958599996098, -0.00169302, -0.00282851, -0.00155435, -0.0253668, 0.417527, 0.202163
820.98886596199997712, -0.00169579, -0.00282991, -0.00155028, -0.0252526, 0.417736, 0.202629
821.02218225199999324, -0.00169725, -0.0028317, -0.00155075, -0.0253485, 0.417695, 0.202742
821.0554985859999988, -0.00170229, -0.00283284, -0.00154423, -0.0252908, 0.418211, 0.203189
821.08896494800001165, -0.00170577, -0.00283579, -0.00153873, -0.0251694, 0.418525, 0.20383
821.12228128100002778, -0.00171135, -0.00283713, -0.00153028, -0.0249657, 0.419216, 0.204437
821.15559758599999896, -0.00171505, -0.00284016, -0.00152123, -0.024673, 0.419766, 0.205234
821.18891391900001508, -0.00172145, -0.00284609, -0.00151203, -0.024259, 0.420275, 0.206453
821.22223027100005766, -0.00172604, -0.00284887, -0.00150392, -0.024016, 0.420863, 0.207092
821.25554661399996803, -0.0017276, -0.00285122, -0.0014995, -0.023772, 0.421032, 0.207595
821.28886294799997358, -0.00173414, -0.00285611, -0.00148409, -0.0232861, 0.422156, 0.208564
821.32217928099998971, -0.00174753, -0.00286304, -0.00146239, -0.0227187, 0.423713, 0.209784
821.35549558599996089, -0.00175933, -0.00286937, -0.00144522, -0.0223562, 0.42489, 0.210647
821.38881191899997702, -0.00176649, -0.00287757, -0.00143504, -0.0221861, 0.425469, 0.21138
821.4222782519999555, -0.0017695, -0.0028788, -0.001431, -0.022275, 0.42578, 0.211284
821.45559455700004037, -0.00177962, -0.00288115, -0.00141622, -0.021822, 0.426826, 0.211869
821.48891088599998511, -0.00178802, -0.0028817, -0.00140382, -0.0212215, 0.427761, 0.212536
821.52222728100002769, -0.00179829, -0.0028813, -0.00138707, -0.021164, 0.429088, 0.212332
821.55554361400004382, -0.00180542, -0.00288452, -0.00137737, -0.0211744, 0.429777, 0.212359
821.588859919000015, -0.00180657, -0.00288734, -0.0013768, -0.0209346, 0.429786, 0.212802
821.62217624799995974, -0.0018146, -0.00288602, -0.00136497, -0.0205331, 0.430635, 0.213034
821.65549258099997587, -0.00181951, -0.00288717, -0.00135778, -0.020265, 0.431108, 0.213286
821.68880891900005281, -0.00182019, -0.00289131, -0.00135584, -0.0200492, 0.431165, 0.213757
821.72212528099998963, -0.00182021, -0.00289475, -0.00135512, -0.019996, 0.431182, 0.213995
821.7555916139999681, -0.00182415, -0.00289352, -0.00134808, -0.0198325, 0.431632, 0.214001
821.78890794799997366, -0.00183548, -0.00289288, -0.00133145, -0.0196474, 0.432702, 0.213867
821.8222242860000506, -0.00184143, -0.00289409, -0.00132092, -0.0197291, 0.433447, 0.213603
821.85554061400000592, -0.00184618, -0.00289455, -0.00131198, -0.0198917, 0.434125, 0.21324
821.88885694800001147, -0.00184672, -0.00289432, -0.00131118, -0.01987, 0.434175, 0.213246
821.92217321900000115, -0.00184215, -0.00289576, -0.00131836, -0.0198176, 0.43367, 0.213523
821.95548961400004373, -0.00184556, -0.00289458, -0.00131187, -0.0197646, 0.434063, 0.213384
821.9888059139999541, -0.00185077, -0.00289086, -0.00130168, -0.0196656, 0.434652, 0.213122
822.02212140799997542, -0.00185738, -0.00288886, -0.00128958, -0.0195244, 0.435315, 0.212963
822.05543580400001247, -0.00185787, -0.00288926, -0.00128863, -0.0195823, 0.435407, 0.212898
822.08875023799998871, -0.00185565, -0.00289545, -0.00129268, -0.0196038, 0.435147, 0.213227
822.12221466899995903, -0.00185548, -0.00289554, -0.00129324, -0.0196234, 0.435118, 0.21322
822.15552913199996965, -0.00185494, -0.00289744, -0.00129544, -0.0195893, 0.434982, 0.213366
822.18884350400003314, -0.00185287, -0.0028999, -0.00129776, -0.0194594, 0.434771, 0.213646
822.22215797199999088, -0.00185195, -0.00290425, -0.00130089, -0.0193743, 0.434518, 0.213965
822.25547240599996712, -0.00185097, -0.00291277, -0.00130538, -0.0191965, 0.434126, 0.214552
822.28878686899997774, -0.0018482, -0.00291926, -0.00131295, -0.0192463, 0.433699, 0.214866
822.32210126999996191, -0.00184349, -0.00291868, -0.00132222, -0.0193385, 0.433292, 0.214843
822.35541570400005185, -0.00183989, -0.00291971, -0.00132939, -0.0193986, 0.432952, 0.214872
822.38873014299997521, -0.00183603, -0.00292062, -0.00133621, -0.01936, 0.432615, 0.214977
822.42204457299999376, -0.00183328, -0.00292286, -0.00134339, -0.0192845, 0.432221, 0.215158
822.45550900299997465, -0.00183218, -0.00292362, -0.00134605, -0.0192037, 0.432068, 0.215254
822.48882346599998527, -0.00182942, -0.00293058, -0.00135308, -0.0190478, 0.431631, 0.215657
822.52213786699996945, -0.00182721, -0.00293118, -0.00136066, -0.0190238, 0.431291, 0.215709
822.55545230100005938, -0.00182449, -0.00293331, -0.00136822, -0.0189517, 0.430927, 0.215846
822.58876676900001712, -0.00182154, -0.00293893, -0.00137482, -0.0187908, 0.430581, 0.216166
822.6220811750000621, -0.00181405, -0.00294235, -0.00138753, -0.0186048, 0.430056, 0.216468
822.65539592300001459, -0.00181191, -0.0029448, -0.00139131, -0.0184807, 0.429875, 0.216633
822.68871007200004897, -0.00180115, -0.00293937, -0.00140767, -0.0183883, 0.429389, 0.216535
822.72202447300003314, -0.00179755, -0.00294636, -0.00141682, -0.0181392, 0.428961, 0.216919
822.75533894000000146, -0.00180002, -0.00295421, -0.00141579, -0.0179907, 0.428889, 0.21716
822.78865334099998563, -0.00180238, -0.00296407, -0.00141575, -0.0178418, 0.428786, 0.217436
822.82211775300004319, -0.00180272, -0.00296544, -0.00141556, -0.0178342, 0.428784, 0.217471
822.85543220600004588, -0.00180307, -0.00296642, -0.00141444, -0.0178183, 0.428815, 0.217496
822.8887466690000565, -0.00180221, -0.00296494, -0.00141768, -0.0177741, 0.428748, 0.217432
822.92206109400001424, -0.00180356, -0.00296324, -0.00141742, -0.0175281, 0.428829, 0.217339
822.95537550899996404, -0.00180554, -0.00296676, -0.00141245, -0.0173846, 0.429011, 0.21737
822.98868997199997466, -0.0018058, -0.00296677, -0.00141184, -0.0173604, 0.429034, 0.217362
823.02200525399996422, -0.00180808, -0.00297199, -0.00140614, -0.0171569, 0.429268, 0.217395
823.05532152399996448, -0.00181047, -0.00297359, -0.00140193, -0.0168901, 0.429465, 0.217327
823.08863788999997269, -0.00181061, -0.00297409, -0.00140178, -0.0168646, 0.429484, 0.217327
823.12195419500005755, -0.00181394, -0.00298309, -0.00139433, -0.0165931, 0.429828, 0.217363
823.15542049999999108, -0.00181536, -0.00298671, -0.00139098, -0.0164166, 0.430003, 0.217345
823.18873688999997285, -0.00181562, -0.00298783, -0.00139086, -0.0163329, 0.430047, 0.217345
823.22205319500005771, -0.00181869, -0.00299231, -0.00138389, -0.0161234, 0.430325, 0.217285
823.25536949499996808, -0.00181919, -0.00300076, -0.00138161, -0.0160811, 0.430528, 0.21739
823.28868585700001859, -0.00181874, -0.00300064, -0.0013839, -0.0160597, 0.430492, 0.217421
823.32200222400001621, -0.0018211, -0.00300288, -0.00137893, -0.0162232, 0.430554, 0.217396
823.35531852799999797, -0.00182245, -0.00300704, -0.0013749, -0.0162795, 0.430685, 0.217387
823.3886348570000564, -0.0018237, -0.00301268, -0.00137172, -0.0162745, 0.430871, 0.217389
823.42195122400005403, -0.00182462, -0.0030234, -0.0013688, -0.0163707, 0.431178, 0.21745
823.45526749999999083, -0.00182516, -0.00303055, -0.0013686, -0.016362, 0.431396, 0.217514
823.4885838899999726, -0.00182772, -0.00303707, -0.00136461, -0.0160479, 0.431736, 0.217413
